cf_timestamp_ms,host_monotonic_s,acc.x,acc.y,acc.z,gyro.x,gyro.y,gyro.z
237586,1604.93954942,0.1019730269908905,0.02656189724802971,1.0200611352920532,0.6471736431121826,-0.8423845767974854,0.13195618987083435
237596,1604.949741526,0.09703109413385391,0.024694398045539856,1.017095685005188,-0.08994198590517044,-3.279395580291748,-0.6748608946800232
237606,1604.959435456,0.09007500112056732,0.030885741114616394,1.0060224533081055,-0.19551943242549896,-4.116582870483398,-2.009687900543213
237616,1604.969568075,0.06305745244026184,0.04233440011739731,0.9790992736816406,-0.33033761382102966,-2.8639516830444336,-1.962861180305481
237626,1604.979823743,0.04331383481621742,0.060578059405088425,0.9560356736183167,-0.012284262105822563,-1.0515081882476807,-0.16496393084526062
237636,1604.989815577,0.04970699921250343,0.06155082583427429,0.9559754133224487,1.146013855934143,2.135999917984009,1.3366390466690063
237646,1604.999070952,0.06324391067028046,0.05455842986702919,0.96764075756073,1.8916051387786865,3.252885341644287,2.5184342861175537
237656,1605.00905884,0.07395099848508835,0.03999406471848488,0.983720600605011,0.30657127499580383,3.3096935749053955,3.981627941131592
237666,1605.020754903,0.08434043824672699,0.03302404657006264,1.0010292530059814,0.7971756458282471,3.648906707763672,4.865518093109131
237676,1605.029047767,0.10378845781087875,0.02603602223098278,1.0145039558410645,0.7001273036003113,3.4847490787506104,2.9517834186553955
237686,1605.03960637,0.10476130992174149,0.026757365092635155,1.0198856592178345,0.5570031404495239,1.1710957288742065,0.5575313568115234
237696,1605.049777816,0.09462476521730423,0.02290191687643528,1.020629644393921,0.946466863155365,-0.8216912150382996,-0.9209940433502197
237706,1605.058779235,0.08062843978404999,0.017026105895638466,1.0163719654083252,0.47860005497932434,-2.008283853530884,-1.7064166069030762
237716,1605.069785052,0.07531355321407318,0.0254907738417387,1.0080204010009766,-0.2797218859195709,-1.1382086277008057,-1.136414885520935
237726,1605.079309857,0.07891344279050827,0.04379184916615486,0.9965406656265259,-0.5908581018447876,-0.6703005433082581,0.477023184299469
237736,1605.089097657,0.0793244019150734,0.0571255199611187,0.9854447245597839,-0.25306805968284607,-0.6419969797134399,1.363113284111023
237746,1605.098844182,0.07065261155366898,0.04973053187131882,0.9789852499961853,0.12308403849601746,-0.6749094128608704,1.4371408224105835
237756,1605.108712169,0.052787892520427704,0.04728604853153229,0.9726147651672363,-0.10922743380069733,-0.08687520027160645,1.4983056783676147
237766,1605.119100002,0.05048099160194397,0.046182915568351746,0.9702755212783813,0.02816098928451538,2.2347514629364014,1.3627220392227173
237776,1605.128873419,0.07882165908813477,0.051043685525655746,0.9853026270866394,0.39519360661506653,3.858675956726074,2.0851693153381348
237786,1605.138120737,0.11171336472034454,0.032800886780023575,1.00424325466156,0.4446363151073456,2.8231194019317627,1.390394687652588
237796,1605.149107555,0.11050631105899811,0.015029238536953926,1.0193006992340088,0.37079501152038574,-1.000051736831665,0.2991219758987427
237806,1605.157888867,0.09334772080183029,0.015958020463585854,1.0247398614883423,-0.6671478748321533,-3.470564365386963,-1.9346030950546265
237816,1605.168911336,0.0800141766667366,0.013261562213301659,1.0261468887329102,-0.5972075462341309,-2.585388422012329,-4.884080410003662
237826,1605.178353508,0.08031141012907028,0.03321162611246109,1.0131231546401978,0.0398821160197258,-1.9142322540283203,-6.459899425506592
237836,1605.189316277,0.07766924053430557,0.05508895218372345,0.9912407398223877,0.858417809009552,-2.608553886413574,-5.773094177246094
237846,1605.198930357,0.07274714857339859,0.0551079660654068,0.9841400980949402,1.37421715259552,-3.0745935440063477,-2.3851137161254883
237856,1605.209112456,0.06620492786169052,0.05366053059697151,0.9786843061447144,0.5240472555160522,-2.02773118019104,-0.15259435772895813
237866,1605.218649354,0.06628189235925674,0.06196630746126175,0.9756317734718323,0.3980244994163513,0.1750558465719223,1.632302165031433
237876,1605.229131132,0.06836885213851929,0.05081700161099434,0.9781150221824646,1.118688941001892,0.8632053136825562,2.130772352218628
237886,1605.239565256,0.05740940570831299,0.03697282448410988,0.986542820930481,-0.14088290929794312,1.1613308191299438,1.9242582321166992
237896,1605.248839058,0.06691832840442657,0.03527989238500595,0.9932613968849182,-0.20744174718856812,1.7685147523880005,0.7439727187156677
237906,1605.258725058,0.08879788219928741,0.032197922468185425,1.0017585754394531,0.01831197924911976,2.5974278450012207,0.15103831887245178
237916,1605.269323664,0.0924973413348198,0.031104501336812973,1.0041245222091675,0.018826548010110855,1.3367676734924316,1.0748071670532227
237926,1605.278829338,0.08423593640327454,0.03985726833343506,0.9927900433540344,-0.08195185661315918,-0.04101146012544632,1.0229862928390503
237936,1605.288780238,0.0831090584397316,0.045978762209415436,0.9921259880065918,0.5777087211608887,0.5853491425514221,0.020813148468732834
237946,1605.29808568,0.08660456538200378,0.03889249637722969,0.9950807094573975,1.0202604532241821,0.8884183168411255,-0.22527767717838287
237956,1605.309117933,0.08255273103713989,0.03717297688126564,0.9981218576431274,1.0336705446243286,-0.23445676267147064,2.3088886737823486
237966,1605.319082665,0.08111566305160522,0.04642171785235405,0.9931118488311768,1.4835866689682007,-0.5661731958389282,4.629652500152588
237976,1605.329020501,0.0741967111825943,0.03658914938569069,1.0004947185516357,1.7959980964660645,-0.03371039777994156,5.730581283569336
237986,1605.341364823,0.06671270728111267,0.027303844690322876,1.007085919380188,0.6059237122535706,0.5386034846305847,4.409316539764404
237996,1605.349359062,0.07268422096967697,0.03496090695261955,1.0085779428482056,0.3011861741542816,1.6029525995254517,2.3600125312805176
238006,1605.358951912,0.09316421300172806,0.03900087624788284,1.0005258321762085,0.27657780051231384,1.9347268342971802,-0.26186978816986084
238016,1605.368369683,0.09476786106824875,0.03641468659043312,0.9951165318489075,0.8890557289123535,0.4087960720062256,0.15312781929969788
238026,1605.378377207,0.08596540242433548,0.03623074293136597,0.9939034581184387,1.1161891222000122,-2.0643792152404785,2.582390308380127
238036,1605.389368563,0.07918299734592438,0.03923922777175903,0.998991847038269,1.4556328058242798,-1.820273518562317,3.674866199493408
238046,1605.398390606,0.07562336325645447,0.03940800577402115,1.004743218421936,0.8051189184188843,-0.8290295600891113,1.4508689641952515
238056,1605.409090987,0.07254170626401901,0.034908100962638855,0.9957200884819031,-1.0177651643753052,-0.14543503522872925,-2.3140692710876465
238066,1605.419056673,0.05630115047097206,0.03824257105588913,0.9755839705467224,-1.7372881174087524,-0.8466978669166565,-1.5141321420669556
238076,1605.429102534,0.052226722240448,0.039867088198661804,0.9637646079063416,-1.735913872718811,1.0411441326141357,2.0428786277770996
238086,1605.438842845,0.06760844588279724,0.045494094491004944,0.9634737372398376,-1.353214144706726,3.54461407661438,4.814327239990234
238096,1605.449452421,0.08030601590871811,0.05091901868581772,0.9713048934936523,0.06812045723199844,3.934239387512207,4.970561981201172
238106,1605.458128179,0.08272074908018112,0.05037735775113106,0.9857821464538574,1.062546968460083,2.4263651371002197,2.3198506832122803
238116,1605.468527233,0.0810018852353096,0.038891829550266266,1.0029042959213257,1.5203779935836792,1.4739238023757935,-0.640082597732544
238126,1605.478343617,0.08515473455190659,0.03176257014274597,1.0174493789672852,1.7782418727874756,1.9505445957183838,-3.0429344177246094
238136,1605.489538291,0.09361612051725388,0.02946597710251808,1.030488133430481,0.2636367082595825,1.925154685974121,-4.086790084838867
238146,1605.498850187,0.10213243216276169,0.02103332057595253,1.0303866863250732,0.35589343309402466,-0.1912030428647995,-2.8836662769317627
238156,1605.508997893,0.08670734614133835,0.03110489435493946,1.022997260093689,0.09013931453227997,-2.530458688735962,-0.5104058384895325
238166,1605.519316392,0.07770302146673203,0.04553186520934105,1.0099490880966187,-0.13320878148078918,-2.476814031600952,1.2270091772079468
238176,1605.528837709,0.06848308444023132,0.05058242008090019,0.9913464188575745,0.22857744991779327,-0.5222519636154175,2.1936278343200684
238186,1605.538654476,0.05810887739062309,0.05010316148400307,0.9783458709716797,-0.3185771703720093,-0.33921757340431213,2.982001781463623
238196,1605.549741371,0.05680180341005325,0.053513795137405396,0.9722675681114197,-1.084370493888855,1.0884287357330322,2.8120853900909424
238206,1605.558233066,0.06829362362623215,0.0648774802684784,0.9649972319602966,0.2598564922809601,2.756805896759033,1.3621416091918945
238216,1605.568684318,0.07909343391656876,0.05711628869175911,0.9695703387260437,1.2113596200942993,3.1336922645568848,-0.40215587615966797
238226,1605.579552508,0.07621803879737854,0.041733380407094955,0.9817994832992554,1.9364374876022339,1.8372801542282104,-1.765809416770935
238236,1605.5888397,0.07883400470018387,0.02542336843907833,1.001443862915039,2.3376147747039795,1.4736075401306152,-1.7730883359909058
238246,1605.59875924,0.0825577974319458,0.00550101138651371,1.0234895944595337,0.38974711298942566,1.4182549715042114,-0.0803288072347641
238256,1605.608507176,0.0975845530629158,0.0035337749868631363,1.0321025848388672,-0.011175028048455715,0.8733858466148376,2.0303151607513428
238266,1605.61748073,0.10172338038682938,0.022929009050130844,1.023442029953003,-0.10707544535398483,-0.944078803062439,2.159280300140381
238276,1605.627844444,0.08971314877271652,0.029447263106703758,1.0102031230926514,0.23808252811431885,-2.5001633167266846,-0.7090733051300049
238286,1605.638466305,0.06843080371618271,0.039379943162202835,0.9877070188522339,-0.2690098285675049,-2.348656415939331,-3.47578501701355
238296,1605.648858189,0.048712581396102905,0.056883640587329865,0.9698536396026611,-0.22291472554206848,-0.9230491518974304,-2.324960947036743
238306,1605.659183201,0.04611542448401451,0.06590763479471207,0.9620319604873657,-0.05818350240588188,0.9268710017204285,0.6510328054428101
238316,1605.669909841,0.06058228015899658,0.0719897672533989,0.9661104083061218,-0.8630781769752502,2.8836967945098877,3.38725209236145
238326,1605.678646167,0.07224030792713165,0.07989845424890518,0.9743766188621521,0.8549390435218811,2.9392476081848145,4.358294486999512
238336,1605.689738242,0.07784611731767654,0.059504684060811996,0.9931122660636902,1.3646234273910522,2.6446261405944824,2.598814010620117
238346,1605.698122946,0.08126230537891388,0.034251339733600616,1.0144600868225098,1.3688907623291016,1.504992127418518,0.4918598532676697
238356,1605.708838966,0.09519682079553604,0.013943704776465893,1.0262584686279297,1.4236092567443848,1.1878293752670288,-0.7788410782814026
238366,1605.718739212,0.10345043987035751,0.004643804859369993,1.0293302536010742,0.812351644039154,-0.7991944551467896,-0.8819109797477722
238376,1605.72962643,0.09934352338314056,0.00829426571726799,1.019883632659912,-0.23410826921463013,-2.66990065574646,-0.13253724575042725
238386,1605.739276713,0.07885511964559555,0.024550357833504677,1.0055633783340454,-0.28215959668159485,-3.6249423027038574,-0.17059004306793213
238396,1605.749108363,0.06220192089676857,0.052706774324178696,0.9813482165336609,0.3173678517341614,-2.2606923580169678,-1.2607858180999756
238406,1605.758263898,0.04593263939023018,0.06290524452924728,0.967133641242981,0.7454745769500732,-0.09946062415838242,-1.3228044509887695
238416,1605.768269384,0.0378754585981369,0.055375754833221436,0.9645264148712158,0.8595449924468994,1.3244521617889404,0.28751757740974426
238426,1605.778902314,0.0518677644431591,0.053393397480249405,0.9729101061820984,1.023925542831421,4.030041217803955,3.828191041946411
238436,1605.788946094,0.0755653828382492,0.049392811954021454,0.9853749871253967,-0.07524257898330688,5.023349285125732,5.208024978637695
238446,1605.79891602,0.09650470316410065,0.051079362630844116,0.9999998211860657,0.26086848974227905,3.403317451477051,4.014220714569092
238456,1605.808772997,0.10247574746608734,0.043306492269039154,1.0080287456512451,0.6292977333068848,1.357295274734497,0.5328190326690674
238466,1605.819122184,0.08771289885044098,0.028713658452033997,1.0148571729660034,0.46939748525619507,-0.34440678358078003,-2.1932311058044434
238476,1605.829305397,0.07066860795021057,0.023319032043218613,1.014639973640442,0.7506626844406128,-0.8742586374282837,-2.6202163696289062
238486,1605.83843196,0.06623128056526184,0.023896411061286926,1.0115536451339722,-0.07656079530715942,0.059644781053066254,-1.1359102725982666
238496,1605.848461587,0.07616850733757019,0.036505475640296936,1.004897952079773,-0.7404859662055969,0.8416571617126465,-0.75933837890625
238506,1605.858765447,0.08710497617721558,0.06104886531829834,0.9912487864494324,0.20155364274978638,0.039745692163705826,0.2323606163263321
238516,1605.868656799,0.08556816726922989,0.06535180658102036,0.98401939868927,1.0580497980117798,-1.1285603046417236,0.005206075496971607
238526,1605.878775126,0.06747937947511673,0.051699984818696976,0.9838516712188721,1.8339649438858032,-1.6076385974884033,-0.8242553472518921
238536,1605.889063741,0.0542634055018425,0.043668389320373535,0.9887685775756836,0.7674446702003479,-0.33762291073799133,-1.273442029953003
238546,1605.897907853,0.05808288976550102,0.037563253194093704,0.9910154342651367,0.4772234559059143,1.8148325681686401,-0.3659115731716156
238556,1605.908928459,0.06591438502073288,0.042044077068567276,0.9950276017189026,0.6467911005020142,1.9666725397109985,0.30814656615257263
238566,1605.917935574,0.07771330326795578,0.045808929949998856,1.0018222332000732,0.16690289974212646,1.5708423852920532,1.0880355834960938
238576,1605.929061634,0.08190850913524628,0.04022956266999245,1.0053966045379639,0.4227871298789978,1.4920488595962524,1.8496732711791992
238586,1605.939077424,0.08452831208705902,0.03167715296149254,1.012083649635315,0.39198461174964905,0.48734796047210693,0.459997296333313
238596,1605.948077565,0.09237231314182281,0.032479435205459595,1.0078270435333252,-0.2797812819480896,0.12313508987426758,-2.382990837097168
238606,1605.958669289,0.07916159927845001,0.037892647087574005,0.9968534708023071,-0.3328065574169159,-0.911870539188385,-3.207453966140747
238616,1605.968876602,0.07225271314382553,0.03344142436981201,0.9897897243499756,-0.09569168835878372,-1.3743882179260254,-0.38805103302001953
238626,1605.977922254,0.06928898394107819,0.0366390198469162,0.9955586194992065,-1.0338096618652344,-1.02219557762146,2.136197328567505
238636,1605.988990599,0.072989821434021,0.05306801199913025,0.9917744994163513,-0.9984366297721863,-0.3632963001728058,3.174417018890381
238646,1605.998741472,0.08156079798936844,0.054400864988565445,0.9902929663658142,0.48820745944976807,-0.6307347416877747,1.7649028301239014
238656,1606.008655857,0.06495334208011627,0.044021882116794586,0.9873480200767517,0.7244707345962524,-1.198179841041565,-0.2969086766242981
238666,1606.017746582,0.05086832866072655,0.045915354043245316,0.9828113913536072,0.5083348751068115,-0.4753239154815674,-1.0047452449798584
238676,1606.029307748,0.04911953955888748,0.04992746189236641,0.983761191368103,-0.1386968046426773,2.2268502712249756,0.19018340110778809
238686,1606.038353587,0.07520680874586105,0.0490584671497345,0.9936758875846863,0.1799950748682022,3.8706538677215576,1.4537822008132935
238696,1606.048557908,0.09908594936132431,0.05010361596941948,1.0032691955566406,0.08000090718269348,2.06711483001709,1.4259642362594604
238706,1606.058661303,0.09695231914520264,0.04563333839178085,1.0102829933166504,0.7442747950553894,-0.8045699000358582,0.30810829997062683
238716,1606.069092825,0.0845814123749733,0.037872977554798126,1.0121468305587769,0.7186662554740906,-2.3181612491607666,-0.6152060627937317
238726,1606.077995607,0.07456213235855103,0.034884508699178696,1.0085450410842896,0.6529143452644348,-1.4238734245300293,-0.4598105847835541
238736,1606.088872853,0.06414008140563965,0.03241608664393425,0.9991029500961304,0.6107636094093323,-0.8715919852256775,-0.1040194034576416
238746,1606.098977738,0.06259362399578094,0.03647865727543831,0.9937055110931396,-0.23823226988315582,-0.557469367980957,2.121518135070801
238756,1606.109135471,0.07638366520404816,0.03749358281493187,0.9937545657157898,0.16984082758426666,0.11605893075466156,3.5558977127075195
238766,1606.118845306,0.07660078257322311,0.04506231099367142,0.9976907968521118,0.4121270775794983,0.050832152366638184,3.01141619682312
238776,1606.128558121,0.0683102086186409,0.03579669073224068,0.999698281288147,-0.07846075296401978,-0.9171290397644043,0.24576830863952637
238786,1606.138555403,0.0700746551156044,0.03301220014691353,1.00439453125,-0.30427685379981995,-0.8537580370903015,-1.790748119354248
238796,1606.148340168,0.08510072529315948,0.03701413795351982,1.0056705474853516,-1.418388843536377,-0.3833790719509125,-2.3690567016601562
238806,1606.158582115,0.0792960673570633,0.03845730051398277,1.000251054763794,-1.3359516859054565,-1.6463325023651123,-1.2774466276168823
238816,1606.16885401,0.077427439391613,0.046275973320007324,0.9886893630027771,-1.9244763851165771,-2.163156509399414,-0.7170445322990417
238826,1606.178608927,0.07459921389818192,0.05546500161290169,0.982911229133606,-1.3540598154067993,-1.8468137979507446,-1.388161301612854
238836,1606.18807817,0.06899618357419968,0.06720361858606339,0.9726053476333618,-0.4426548182964325,-0.6342343688011169,-1.4186687469482422
238846,1606.198240128,0.06048695370554924,0.06422712653875351,0.9691515564918518,1.0550838708877563,0.030416827648878098,-0.33107951283454895
238856,1606.211410433,0.04791615530848503,0.045634496957063675,0.9786005616188049,1.3279558420181274,0.7165400385856628,1.8594541549682617
238866,1606.217577072,0.06022566929459572,0.039426691830158234,0.9970842003822327,0.4188869297504425,2.8760838508605957,4.178898334503174
238876,1606.2267568,0.09173272550106049,0.027385789901018143,1.0154236555099487,-0.7771446704864502,3.6050472259521484,5.659031391143799
238886,1606.238033238,0.10653750598430634,0.02228465862572193,1.0187093019485474,-1.450759768486023,1.1552681922912598,4.916689872741699
238896,1606.248097793,0.09050238132476807,0.029467150568962097,1.0100940465927124,-1.680351972579956,-2.1501755714416504,2.666628837585449
238906,1606.258086339,0.06921649724245071,0.03702791780233383,0.9988227486610413,-1.3172791004180908,-2.427889108657837,0.42377305030822754
238916,1606.268714573,0.05381781607866287,0.04974688962101936,0.9869829416275024,0.28777018189430237,-0.26168134808540344,-0.4892938435077667
238926,1606.278512715,0.05019358918070793,0.05247318744659424,0.9885920286178589,-0.13046160340309143,1.446541666984558,0.8577073812484741
238936,1606.287901882,0.06914550811052322,0.046915486454963684,0.996370792388916,0.40185731649398804,1.8117650747299194,2.242530107498169
238946,1606.298289855,0.07391540706157684,0.047155093401670456,0.9975815415382385,0.4665190875530243,1.4924736022949219,1.2671533823013306
238956,1606.309084084,0.07750394195318222,0.05343564227223396,0.995807945728302,0.42313018441200256,0.491669625043869,-1.6456190347671509
238966,1606.318570654,0.08794596046209335,0.04413727670907974,0.9952819347381592,0.19062945246696472,1.1759134531021118,-4.374880790710449
238976,1606.328934313,0.08732229471206665,0.030202584341168404,0.9994058609008789,0.7668358683586121,-0.634802520275116,-4.965039253234863
238986,1606.338591627,0.08447971940040588,0.029547959566116333,0.9971775412559509,-0.22428514063358307,-1.8058983087539673,-3.7239339351654053
238996,1606.348833948,0.07344017177820206,0.028543725609779358,1.001366138458252,0.4574472904205322,-1.503963589668274,-1.7103865146636963
239006,1606.358390989,0.07279077917337418,0.03131520748138428,1.0045535564422607,0.7293140292167664,-0.7988584637641907,0.0625300332903862
239016,1606.368756109,0.07233335077762604,0.026396792382001877,1.0065983533859253,0.44008126854896545,-0.7683069109916687,-0.29480764269828796
239026,1606.377802349,0.07155516743659973,0.037789713591337204,0.9995259046554565,-0.06248750537633896,-0.9913475513458252,-0.8100069761276245
239036,1606.388528906,0.06815216690301895,0.05481160059571266,0.9890323877334595,0.7488458752632141,-1.0242600440979004,-0.4725317060947418
239046,1606.398629052,0.06508642435073853,0.05998954921960831,0.9833787679672241,1.1263424158096313,-0.4685725271701813,-3.0111987590789795
239056,1606.407998111,0.06451352685689926,0.05120668187737465,0.9877967834472656,0.7814142107963562,0.510488748550415,-5.437922954559326
239066,1606.418328921,0.061659347265958786,0.04656316339969635,0.9868156313896179,-0.2937605082988739,1.0493767261505127,-5.206571578979492
239076,1606.428581507,0.06847463548183441,0.047769393771886826,0.9883886575698853,-0.016799090430140495,1.5470396280288696,-0.0024554457049816847
239086,1606.437841511,0.08003199845552444,0.05149529129266739,1.0008050203323364,-0.2269667088985443,1.4121516942977905,5.0712103843688965
239096,1606.448861931,0.08662236481904984,0.05245773866772652,1.0078799724578857,0.0037945613730698824,1.0047143697738647,5.4098711013793945
239106,1606.458051408,0.07898246496915817,0.04174391180276871,1.0069847106933594,0.6125264167785645,-0.3193899989128113,2.3074402809143066
239116,1606.468523515,0.06455744057893753,0.03793012723326683,1.0015751123428345,0.4960138201713562,-1.2491731643676758,-1.460126280784607
239126,1606.477869049,0.0731002613902092,0.03202031925320625,0.9951575994491577,0.2185620367527008,0.5194807052612305,-3.3151755332946777
239136,1606.488322207,0.07459630817174911,0.030302787199616432,0.9864631295204163,0.298627644777298,0.5656397342681885,-2.8748507499694824
239146,1606.49858583,0.07063514739274979,0.0398261733353138,0.9846604466438293,0.14559127390384674,-0.12538006901741028,1.3789963722229004
239156,1606.50898386,0.07821770757436752,0.04104496166110039,0.9873793721199036,0.2651479244232178,0.48940035700798035,4.66380500793457
239166,1606.518335679,0.07384698837995529,0.039285533130168915,0.9932008385658264,0.3213854432106018,0.6513313055038452,5.284849643707275
239176,1606.52873299,0.07130598276853561,0.04491037875413895,0.999474823474884,0.22862793505191803,0.49625587463378906,2.6864397525787354
239186,1606.537592442,0.08502896130084991,0.04150894656777382,1.008406639099121,0.8363178372383118,0.027297547087073326,-1.4536556005477905
239196,1606.548336694,0.08944005519151688,0.037704817950725555,1.0072509050369263,0.4568568468093872,-0.8452990651130676,-3.526646375656128
239206,1606.557668021,0.06806903332471848,0.044948454946279526,0.995974600315094,0.4438144266605377,-2.2795777320861816,-1.6573278903961182
239216,1606.568265581,0.04985874146223068,0.046564556658267975,0.982088029384613,-0.08515043556690216,-1.0329370498657227,-0.3828960061073303
239226,1606.577661835,0.049978502094745636,0.04716087877750397,0.9797349572181702,-0.5592162609100342,1.729312539100647,-0.4921589195728302
239236,1606.588193791,0.06540793925523758,0.05118532478809357,0.9780570864677429,-0.5337874889373779,3.3260385990142822,-0.8271657824516296
239246,1606.597569037,0.08376631885766983,0.0625072568655014,0.9905266165733337,-0.34303486347198486,1.803244948387146,0.45954275131225586
239256,1606.607895462,0.09644873440265656,0.0539570078253746,1.000356912612915,0.8808891177177429,0.1468193531036377,2.1744565963745117
239266,1606.618633696,0.079254649579525,0.03202495351433754,1.012223720550537,1.0571792125701904,-1.0451266765594482,2.4769811630249023
239276,1606.628607055,0.0704437643289566,0.029224639758467674,1.0167131423950195,0.060661446303129196,-0.388569176197052,1.0754472017288208
239286,1606.637851091,0.08198908716440201,0.0326615534722805,1.0125409364700317,0.15830038487911224,0.4356057643890381,-1.1995477676391602
239296,1606.64887063,0.09291359037160873,0.035260237753391266,1.0065289735794067,0.04098978266119957,-0.8486406803131104,-2.5241074562072754
239306,1606.658048118,0.09209898859262466,0.04270832613110542,0.997471809387207,0.35915645956993103,-2.7806615829467773,-1.7864378690719604
239316,1606.668479493,0.07153419405221939,0.04347396269440651,0.9835816621780396,-0.05020911991596222,-3.214216709136963,-0.059715189039707184
239326,1606.677473769,0.041262343525886536,0.04489957168698311,0.9809877276420593,-0.2744806110858917,-1.9808409214019775,1.7450668811798096
239336,1606.687926561,0.04353052377700806,0.04658402130007744,0.9836785197257996,-1.3850164413452148,1.4820261001586914,3.0538222789764404
239346,1606.698589044,0.059896886348724365,0.05648574233055115,0.9826509952545166,-0.5675046443939209,3.4095444679260254,2.6179449558258057
239356,1606.709197299,0.0788050964474678,0.05636867135763168,0.986734926700592,-0.09093037992715836,2.714153528213501,1.735608458518982
239366,1606.71809623,0.08373091369867325,0.050937749445438385,0.9937328100204468,-0.0026686950586736202,1.5206166505813599,1.6203559637069702
239376,1606.728473052,0.0808446854352951,0.043461233377456665,0.9979211688041687,-0.14360660314559937,0.7573795914649963,2.1613752841949463
239386,1606.738018262,0.07756990194320679,0.03732595220208168,1.0040605068206787,0.6907840371131897,0.871385395526886,2.4035751819610596
239396,1606.749054629,0.08618400990962982,0.03504454717040062,1.0121817588806152,0.319484680891037,0.3712892234325409,0.7142825722694397
239406,1606.758507721,0.09588389843702316,0.03493904322385788,1.0135194063186646,-0.14183998107910156,-0.9131191968917847,-2.0694196224212646
239416,1606.768931752,0.08184170722961426,0.04092459753155708,1.0078331232070923,0.6979978084564209,-2.551518678665161,-3.6051406860351562
239426,1606.777980366,0.06368467211723328,0.04653085768222809,0.9993523955345154,0.7093917727470398,-3.009965419769287,-2.1187753677368164
239436,1606.788767381,0.054625995457172394,0.02924410253763199,0.9975108504295349,-0.3273959457874298,-0.8327133059501648,1.6166844367980957
239446,1606.798678282,0.061485081911087036,0.03228780999779701,0.99351567029953,-0.8594277501106262,0.7864705324172974,3.8470287322998047
239456,1606.807277205,0.07116057723760605,0.058178678154945374,0.985214114189148,-0.2819159924983978,1.4172006845474243,2.9866204261779785
239466,1606.818929316,0.07777291536331177,0.06437202543020248,0.9827086329460144,1.2786564826965332,0.3848816156387329,-0.9097273349761963
239476,1606.828893009,0.0681295096874237,0.05025355517864227,0.9826788306236267,1.2235734462738037,-0.3616066575050354,-3.7535243034362793
239486,1606.837960198,0.07102074474096298,0.04135090485215187,0.9863400459289551,1.144627571105957,0.11938943713903427,-3.0089728832244873
239496,1606.848424601,0.07896202802658081,0.03415066376328468,0.9970312118530273,-0.020618177950382233,1.1179033517837524,-0.29032233357429504
239506,1606.858240014,0.09049112349748611,0.030481325462460518,1.0095226764678955,0.16792833805084229,0.54621422290802,2.3700599670410156
239516,1606.869135815,0.09019257128238678,0.03334911912679672,1.0110656023025513,0.09389258176088333,-0.9654217958450317,1.294136643409729
239526,1606.87860676,0.07634487003087997,0.042069148272275925,1.0047193765640259,0.5240118503570557,-2.6691083908081055,-2.5292701721191406
239536,1606.887969249,0.0654020830988884,0.05503726750612259,0.9935360550880432,1.0113605260849,-2.034956932067871,-5.500500202178955
239546,1606.897847412,0.0534360446035862,0.06639473885297775,0.9856842756271362,1.6854350566864014,-1.1718900203704834,-4.739413738250732
239556,1606.908751277,0.05508655309677124,0.04116887226700783,0.9928339719772339,0.39697542786598206,0.20917949080467224,-1.4751389026641846
239566,1606.918624385,0.060336269438266754,0.030554650351405144,0.9963988661766052,-1.4700491428375244,1.4307163953781128,2.6007261276245117
239576,1606.929128793,0.07961270958185196,0.05047782137989998,0.9928083419799805,-1.0566555261611938,2.108013153076172,5.298503875732422
239586,1606.938452502,0.09275165945291519,0.044407591223716736,0.9999260902404785,-1.0116591453552246,1.694741129875183,4.585371017456055
239596,1606.948488239,0.08072246611118317,0.03656582906842232,1.0015873908996582,-1.165981411933899,-0.33326488733291626,2.3690145015716553
239606,1606.958048013,0.07184556126594543,0.03688971698284149,0.997154951095581,-0.7442396283149719,-0.5174919366836548,0.7971804738044739
239616,1606.968295534,0.07315036654472351,0.04058312252163887,0.995948314666748,0.050309691578149796,0.5681737065315247,-0.9145320057868958
239626,1606.977919342,0.08419467508792877,0.04084306210279465,1.0017527341842651,1.211158037185669,0.18277472257614136,-2.806485414505005
239636,1606.988021111,0.08653366565704346,0.03734816610813141,1.001728892326355,0.823943018913269,-1.4316402673721313,-4.440788269042969
239646,1606.999088317,0.07826871424913406,0.038721244782209396,0.994629442691803,0.4860777258872986,-2.1575124263763428,-4.169663906097412
239656,1607.008876588,0.06484176963567734,0.04631941765546799,0.9828765392303467,-0.17299778759479523,-1.7382736206054688,-1.6269863843917847
239666,1607.01884624,0.060064543038606644,0.04770250245928764,0.9852464199066162,-1.135913610458374,-0.3678275942802429,1.112247347831726
239676,1607.028593812,0.06938163191080093,0.05950867757201195,0.9880600571632385,-0.4886370301246643,1.1381348371505737,2.903791904449463
239686,1607.037989416,0.07016680389642715,0.06883479654788971,0.9908300638198853,0.0381508432328701,0.9010012149810791,3.1437478065490723
239696,1607.047944079,0.07149571180343628,0.05297783389687538,1.001533031463623,0.6997044682502747,0.6584172248840332,1.4212443828582764
239706,1607.058865816,0.07466635853052139,0.04268663749098778,1.0063226222991943,0.08604419231414795,0.8721386194229126,-0.15986689925193787
239716,1607.068027799,0.0760440081357956,0.03563959524035454,1.0053290128707886,-0.5498719811439514,0.8261725902557373,0.14525814354419708
239726,1607.078493195,0.08178530633449554,0.029712172225117683,1.0037387609481812,0.00797840766608715,0.28003647923469543,1.9220948219299316
239736,1607.088049374,0.08486667275428772,0.03212083503603935,1.0008845329284668,-0.6083962321281433,-0.325347363948822,2.2480204105377197
239746,1607.097607184,0.08456460386514664,0.03403756022453308,1.000925064086914,-0.07350446283817291,-1.3516690731048584,0.10606693476438522
239756,1607.108027106,0.07469480484724045,0.040579866617918015,1.0009175539016724,-0.15024954080581665,-1.713006854057312,-2.7055819034576416
239766,1607.118413561,0.07059089094400406,0.04983597993850708,0.9910421371459961,0.8006273508071899,-0.5648622512817383,-3.8813822269439697
239776,1607.129263691,0.06581488251686096,0.03970729932188988,0.9828474521636963,0.5255904197692871,0.20618832111358643,-2.1726529598236084
239786,1607.139452248,0.05709744244813919,0.0334794782102108,0.9815762639045715,0.08844174444675446,0.7295482158660889,1.5842229127883911
239796,1607.148142641,0.06470058113336563,0.05602528527379036,0.9801982641220093,-0.4185504615306854,1.3118853569030762,3.4056363105773926
239806,1607.158828251,0.08583679050207138,0.06527820229530334,0.9822660088539124,0.9969164729118347,2.700883150100708,1.239023208618164
239816,1607.168844514,0.0911579579114914,0.04998132586479187,0.9953075647354126,1.840316653251648,0.7725910544395447,-2.997554063796997
239826,1607.179064029,0.07956773042678833,0.042348869144916534,1.0012253522872925,1.3432530164718628,-1.5654305219650269,-5.137512683868408
239836,1607.188968471,0.06315222382545471,0.0387546569108963,1.0079540014266968,1.3143810033798218,-1.1732609272003174,-2.8312275409698486
239846,1607.197755666,0.0655108243227005,0.034757260233163834,1.0138401985168457,0.2225729525089264,0.4371853768825531,1.4302594661712646
239856,1607.208117368,0.08550947159528732,0.03192445635795593,1.0209252834320068,-0.16432100534439087,1.3260315656661987,4.324539661407471
239866,1607.21761128,0.09671588242053986,0.039763111621141434,1.0142077207565308,-0.4114581048488617,-1.0375910997390747,2.720689535140991
239876,1607.228391416,0.08950308710336685,0.05013052746653557,1.0014069080352783,0.10046158730983734,-3.708817720413208,-2.185685396194458
239886,1607.238026378,0.0733373761177063,0.04592251032590866,0.9895609617233276,0.9156143069267273,-4.345958232879639,-6.198884963989258
239896,1607.24912594,0.05419357493519783,0.04568016901612282,0.9837109446525574,-0.32236936688423157,-2.7351877689361572,-5.236808776855469
239906,1607.258478725,0.04316207394003868,0.06211148202419281,0.9720231294631958,-0.43062472343444824,-0.32239314913749695,-0.4976547360420227
239916,1607.26725335,0.04685824364423752,0.06620054692029953,0.9702293872833252,-0.1620328575372696,1.8244030475616455,5.2082672119140625
239926,1607.276981571,0.07324118167161942,0.05479646474123001,0.9831234216690063,-0.491451621055603,2.985682725906372,6.925412178039551
239936,1607.287808244,0.09364794939756393,0.03997368738055229,0.9965885877609253,-0.3025070130825043,2.5009398460388184,4.723726272583008
239946,1607.297724557,0.09386203438043594,0.03286871314048767,1.0060982704162598,-0.12140333652496338,0.1104355901479721,1.6554123163223267
239956,1607.30805486,0.08189459890127182,0.03304237872362137,1.0059422254562378,0.002440007170662284,-1.128860592842102,-1.4011071920394897
239966,1607.317838071,0.06947989016771317,0.03523872420191765,1.0035021305084229,0.10558812320232391,-0.7308064699172974,-3.6356146335601807
239976,1607.328306332,0.07057750970125198,0.04240847006440163,0.9974842667579651,0.21720658242702484,0.2988455295562744,-4.055488109588623
239986,1607.338273967,0.07668434828519821,0.04003289341926575,0.9907338619232178,0.6696004867553711,-0.002106702420860529,-1.6738251447677612
239996,1607.349570878,0.06468487530946732,0.04277642443776131,0.9886161088943481,0.4530535936355591,-0.9315087199211121,1.4490629434585571
240006,1607.357929792,0.06266763061285019,0.04037189856171608,0.9933369159698486,-0.3845302164554596,-0.0845034271478653,3.2287683486938477
240016,1607.36728855,0.07018332928419113,0.0428314134478569,1.0000373125076294,-0.2056432068347931,1.3619273900985718,1.4538633823394775
240026,1607.37709521,0.08770468831062317,0.04930407553911209,1.0022199153900146,-0.4973545968532562,0.8046603202819824,-1.8809726238250732
240036,1607.387688098,0.1000908762216568,0.04730439931154251,0.9977226257324219,0.2508785128593445,-0.28934937715530396,-3.1500961780548096
240046,1607.397806565,0.08380574733018875,0.04475012049078941,0.9939987063407898,0.40251588821411133,-2.4077513217926025,-2.176384449005127
240056,1607.4074578,0.05743224546313286,0.05192551761865616,0.9872491359710693,0.3620224595069885,-2.1445152759552,0.19089661538600922
240066,1607.417848893,0.04907229542732239,0.0513029508292675,0.9828221797943115,0.07020877301692963,0.5041453838348389,1.2143224477767944
240076,1607.427774816,0.05723501741886139,0.04794023558497429,0.9833771586418152,0.009540565311908722,2.1932594776153564,1.7977354526519775
240086,1607.437773417,0.07467252761125565,0.0528121180832386,0.9934561848640442,-0.1846144050359726,1.9325975179672241,1.2488619089126587
240096,1607.449675032,0.07903937995433807,0.047850850969552994,0.9983119368553162,0.5735207796096802,0.9378543496131897,0.6290141344070435
240106,1607.458150746,0.07237555831670761,0.03838484361767769,1.0058870315551758,-0.10939207673072815,1.0309560298919678,-0.07722023129463196
240116,1607.467176585,0.0858326107263565,0.03624515235424042,1.013815999031067,-1.0199275016784668,1.4554475545883179,0.05336971953511238
240126,1607.476979407,0.09881380200386047,0.03605514019727707,1.013837218284607,-0.9484025835990906,0.9743862748146057,1.2420231103897095
240136,1607.487521986,0.09070894122123718,0.04238266497850418,1.0048414468765259,0.2985941469669342,-1.1033819913864136,2.3510870933532715
240146,1607.497087384,0.08101136982440948,0.04346582666039467,1.0046170949935913,0.4849601984024048,-2.2559468746185303,1.851830244064331
240156,1607.507824137,0.0731247290968895,0.04494473338127136,0.9995375871658325,-0.23115350306034088,-1.494426965713501,0.303069144487381
240166,1607.517564782,0.06748848408460617,0.0517253577709198,0.987770140171051,1.1265292167663574,-1.473819375038147,0.15411993861198425
240176,1607.528276362,0.050251737236976624,0.048539284616708755,0.9826884865760803,0.2306944727897644,-1.4742753505706787,1.648532509803772
240186,1607.537613614,0.04878851771354675,0.05010765790939331,0.9839157462120056,0.2911272346973419,0.19738014042377472,2.5171539783477783
240196,1607.549026383,0.06670567393302917,0.050919413566589355,0.984626829624176,-0.8664923310279846,2.58613920211792,2.301682710647583
240206,1607.557094539,0.08081097155809402,0.053679078817367554,0.9919281005859375,0.4111752510070801,2.4053914546966553,2.3580803871154785
240216,1607.567823891,0.09282910078763962,0.04781660810112953,0.9967054724693298,0.2196056842803955,0.7959760427474976,1.3873056173324585
240226,1607.577693114,0.0864904522895813,0.032613564282655716,1.0040699243545532,0.3308335840702057,-1.2473008632659912,0.17102108895778656
240236,1607.588022684,0.06972859054803848,0.0304682906717062,1.0046135187149048,0.16000697016716003,-1.642595648765564,-0.04274970293045044
240246,1607.597393588,0.08300663530826569,0.035535842180252075,1.004426121711731,-1.1290327310562134,-0.6579881906509399,0.30035433173179626
240256,1607.60740327,0.09710507094860077,0.03923792392015457,1.0054643154144287,-0.7853529453277588,-0.21443530917167664,-0.10229210555553436
240266,1607.616836388,0.09134043008089066,0.04925256595015526,0.9960634112358093,0.9684033989906311,-2.900064706802368,-1.6071697473526
240276,1607.62689009,0.07708877325057983,0.04864579811692238,0.9917164444923401,0.8831508755683899,-4.133409023284912,-2.431405782699585
240286,1607.6373207,0.057711660861968994,0.03651420772075653,0.9941694736480713,0.8403165936470032,-2.9099135398864746,-1.969101071357727
240296,1607.648026469,0.05511115863919258,0.039320945739746094,0.9910085797309875,-0.7915385365486145,-0.07668183743953705,0.41202229261398315
240306,1607.65735287,0.06354226171970367,0.049424853175878525,0.9904338121414185,-0.37224552035331726,0.8312158584594727,2.0225467681884766
240316,1607.667893184,0.07488959282636642,0.052919019013643265,0.9892541170120239,-0.33760279417037964,0.7245652079582214,2.1384658813476562
240326,1607.677056982,0.08442144095897675,0.05224708095192909,0.9922371506690979,0.32724082469940186,0.5093837976455688,0.6204832792282104
240336,1607.687232514,0.08851263672113419,0.05642390996217728,0.9953080415725708,0.07582343369722366,-0.2804502546787262,-0.1457052379846573
240346,1607.697687537,0.06746437400579453,0.056667011231184006,0.9950915575027466,0.9283831119537354,-1.2584619522094727,1.0264705419540405
240356,1607.707758955,0.058414142578840256,0.043218258768320084,1.0014644861221313,-0.24718739092350006,0.549522876739502,2.413519859313965
240366,1607.716859938,0.062034256756305695,0.04486944153904915,1.0087777376174927,0.14325177669525146,1.7526981830596924,3.3549273014068604
240376,1607.727080753,0.0892433300614357,0.05202564224600792,1.0091134309768677,-0.0032027808483690023,1.6311185359954834,1.0206278562545776
240386,1607.737607539,0.10068414360284805,0.04985993355512619,1.005905032157898,0.9624150991439819,0.17257827520370483,-0.7736294865608215
240396,1607.748611562,0.08038470149040222,0.05124327540397644,0.9949728846549988,0.8551387190818787,-2.457822799682617,-0.3888933062553406
240406,1607.756552451,0.06417125463485718,0.05727917701005936,0.9820443391799927,0.5438880920410156,-0.8939942717552185,2.4179301261901855
240416,1607.766984216,0.05874659866094589,0.04718600958585739,0.9839626550674438,0.6366732120513916,1.2013542652130127,4.352015495300293
240426,1607.777864462,0.06773970276117325,0.0417427197098732,0.989625096321106,0.47249266505241394,2.2171244621276855,3.9136812686920166
240436,1607.787973865,0.08282061666250229,0.055041324347257614,0.990963876247406,0.7031316161155701,1.4279919862747192,1.7917696237564087
240446,1607.797674692,0.08550570905208588,0.05856359004974365,0.98149174451828,1.1215457916259766,1.2818044424057007,2.069754123687744
240456,1607.807496731,0.06349369883537292,0.03789646178483963,0.9867641925811768,2.508418321609497,0.7632483243942261,4.503466606140137
240466,1607.816650303,0.05913034453988075,0.019376955926418304,0.9854285717010498,0.43793195486068726,3.0162789821624756,5.367187023162842
240476,1607.827543592,0.06429820507764816,0.029550008475780487,0.9807904958724976,-0.3020920753479004,4.5338053703308105,5.5268659591674805
240486,1607.837032689,0.08015807718038559,0.04325471445918083,0.9821910858154297,1.36558198928833,4.503438472747803,4.245258331298828
240496,1607.848521186,0.08937981724739075,0.037803348153829575,0.9989909529685974,1.1387126445770264,2.5079753398895264,1.606211543083191
240506,1607.856929451,0.09273805469274521,0.03733784332871437,1.0162763595581055,1.1374340057373047,0.7039892077445984,-0.8912817239761353
240516,1607.867230234,0.0958079844713211,0.03499487787485123,1.0284209251403809,0.9483115673065186,-0.1974717378616333,-3.1277945041656494
240526,1607.87654405,0.08361373096704483,0.03704690933227539,1.0259994268417358,1.1962664127349854,-1.4436168670654297,-3.241443157196045
240536,1607.886753768,0.07473509013652802,0.0471896231174469,1.0118014812469482,0.48587432503700256,-1.846200942993164,-2.252464771270752
240546,1607.897275591,0.07770268619060516,0.04233953729271889,0.9992480874061584,0.14591050148010254,-1.2567791938781738,-2.329319715499878
240556,1607.907108481,0.06713513284921646,0.05325423181056976,0.9873918294906616,-0.425176203250885,-1.3866112232208252,-0.9451422691345215
240566,1607.917438502,0.06263867765665054,0.07135270535945892,0.9773404002189636,-0.3636741638183594,-1.2438496351242065,0.6060889363288879
240576,1607.927583989,0.06288737058639526,0.06553733348846436,0.9807738065719604,-0.11583709716796875,-0.0031202107202261686,1.6279940605163574
240586,1607.936986553,0.059919893741607666,0.053509388118982315,0.9851071238517761,-0.10922565311193466,1.2410587072372437,2.945514678955078
240596,1607.949621733,0.05431515350937843,0.05086255818605423,0.9895210862159729,-0.3496021330356598,1.3877519369125366,3.961667537689209
240606,1607.957567251,0.07245367020368576,0.04270298406481743,0.9991000294685364,-0.08364156633615494,2.0202949047088623,3.5478343963623047
240616,1607.968021109,0.10105153173208237,0.041120223701000214,1.0086431503295898,0.9036485552787781,2.256784439086914,2.1269445419311523
240626,1607.977339688,0.10034403204917908,0.04038837179541588,1.0107958316802979,1.6866663694381714,-0.799751877784729,-0.32485851645469666
240636,1607.987832055,0.08245012909173965,0.029958460479974747,1.0118273496627808,1.3420928716659546,-2.627788782119751,-1.7923088073730469
240646,1607.9970653,0.06284273415803909,0.028527172282338142,1.0081524848937988,0.37244048714637756,-2.7465600967407227,-2.3188059329986572
240656,1608.007986588,0.05786843225359917,0.04342007264494896,0.9974977374076843,-0.31805217266082764,-0.48410484194755554,-1.5591562986373901
240666,1608.017495621,0.062272343784570694,0.05575481802225113,0.9786864519119263,0.34337112307548523,1.0109214782714844,-0.5364878177642822
240676,1608.027714038,0.05493686720728874,0.06316982209682465,0.9672789573669434,0.4139731228351593,0.8022114038467407,0.4843398332595825
240686,1608.037998823,0.05175371095538139,0.06706736236810684,0.9700836539268494,0.5806604027748108,1.1866697072982788,1.0319467782974243
240696,1608.049518001,0.06293848901987076,0.0691223219037056,0.9850581288337708,1.1540096998214722,3.3763620853424072,1.089664340019226
240706,1608.057704921,0.08321813493967056,0.0602654293179512,1.000069499015808,1.5932432413101196,3.5639185905456543,0.7664405107498169
240716,1608.068105346,0.08957493305206299,0.03770032525062561,1.0099995136260986,0.3417021930217743,1.2338635921478271,0.45063069462776184
240726,1608.077823115,0.08453400433063507,0.03102748468518257,1.0134693384170532,-0.7310935854911804,-0.6596623063087463,1.8143925666809082
240736,1608.087146066,0.07838249206542969,0.041494499891996384,1.0029349327087402,-1.0284812450408936,-0.0440264455974102,2.418614387512207
240746,1608.097108364,0.06308062374591827,0.04240153357386589,0.9949820041656494,-0.7757344245910645,0.15929341316223145,1.8369483947753906
240756,1608.107774448,0.07019539922475815,0.04421457275748253,0.9912421703338623,-1.3058112859725952,0.80703204870224,-0.41778451204299927
240766,1608.117771277,0.0770312249660492,0.04821307212114334,0.9880937337875366,-0.6685124039649963,0.9401198625564575,-0.36276161670684814
240776,1608.127086006,0.06728117913007736,0.042128946632146835,0.9894465804100037,-0.28569135069847107,0.3014731705188751,1.6470615863800049
240786,1608.137113956,0.06917313486337662,0.039670299738645554,0.9967355728149414,-0.7618213295936584,0.4346097409725189,2.170491933822632
240796,1608.147716183,0.08179038763046265,0.03632592782378197,1.001226782798767,-0.49609386920928955,0.9307560920715332,0.4153984785079956
240806,1608.157048959,0.07874158769845963,0.03875469043850899,1.0003724098205566,0.5624781847000122,-0.11285548657178879,-2.8076350688934326
240816,1608.167133285,0.0694556012749672,0.032578058540821075,0.9926753044128418,0.8806139826774597,-1.035471796989441,-5.223091125488281
240826,1608.178128097,0.06278334558010101,0.03075491264462471,0.9881800413131714,-0.0985305979847908,-0.7089506983757019,-4.132551193237305
240836,1608.187111952,0.07811252772808075,0.055056773126125336,0.9860272407531738,-0.09423290193080902,0.6600010991096497,-0.7752369046211243
240846,1608.197858071,0.09176003187894821,0.06294652819633484,0.9911693930625916,0.6952841281890869,-0.04978055879473686,1.196436882019043
240856,1608.207343734,0.07694341987371445,0.06277746707201004,0.9977458715438843,0.8886096477508545,-1.5097357034683228,0.945599377155304
240866,1608.21713404,0.05295052379369736,0.06331070512533188,0.9945582747459412,0.6197383403778076,-2.133194923400879,-1.0889960527420044
240876,1608.227536927,0.04591762274503708,0.053398795425891876,0.9955074191093445,0.7446561455726624,0.5423982739448547,-2.54329514503479
240886,1608.2373645,0.05652839317917824,0.04683347046375275,1.0013864040374756,-0.028456786647439003,2.142983913421631,-1.6247279644012451
240896,1608.246786407,0.06906642019748688,0.055315833538770676,1.0037915706634521,-0.8276389837265015,1.8671579360961914,1.7781879901885986
240906,1608.257255997,0.08063043653964996,0.06091304123401642,0.9983844757080078,0.2289922833442688,1.2270207405090332,3.1507554054260254
240916,1608.266774789,0.07685074210166931,0.05326327681541443,0.9981440901756287,0.2549722492694855,0.27185142040252686,3.49367094039917
240926,1608.276573318,0.06860339641571045,0.040003109723329544,0.9996206164360046,-0.11601760983467102,0.4414958357810974,2.3400461673736572
240936,1608.287111728,0.06800907105207443,0.04023613780736923,0.9996978044509888,-1.0221906900405884,1.2238718271255493,0.6248326897621155
240946,1608.297708393,0.08991841971874237,0.03944981470704079,1.0020408630371094,-0.7775793075561523,1.0325838327407837,-0.47365397214889526
240956,1608.307682419,0.10145227611064911,0.040335074067115784,1.003355860710144,0.385922908782959,-0.7888766527175903,-1.0613356828689575
240966,1608.317488882,0.08715149015188217,0.041489239782094955,1.0000487565994263,0.7460195422172546,-3.2266533374786377,-1.8066102266311646
240976,1608.326842926,0.06129181757569313,0.037937626242637634,0.9908772110939026,0.43237563967704773,-3.258711338043213,-2.792569875717163
240986,1608.336698372,0.042996846139431,0.04704982787370682,0.9801786541938782,0.8085625767707825,-0.9888911843299866,-2.6094789505004883
240996,1608.347737736,0.04925449192523956,0.05573922023177147,0.9808421730995178,0.4531356990337372,1.4951595067977905,-0.9287424683570862
241006,1608.356724957,0.06460464000701904,0.05279955267906189,0.9843466877937317,0.08236829936504364,1.7227522134780884,0.9145686626434326
241016,1608.36731647,0.08050812780857086,0.058162156492471695,0.9931842684745789,0.3124650716781616,1.3495585918426514,2.6404614448547363
241026,1608.377096706,0.09823490679264069,0.05204081907868385,1.0089420080184937,0.07513749599456787,0.6254475712776184,0.6413728594779968
241036,1608.386554745,0.09479537606239319,0.05068756639957428,1.016803503036499,0.737995982170105,-1.4798294305801392,-2.69525408744812
241046,1608.396222035,0.06968376040458679,0.04844992235302925,1.0114521980285645,0.5401548147201538,-2.4708878993988037,-3.626032590866089
241056,1608.40686134,0.056258831173181534,0.046247947961091995,1.0001587867736816,0.4040318429470062,-1.6544861793518066,-1.7201961278915405
241066,1608.417512561,0.051756951957941055,0.05253934487700462,0.9908134937286377,-0.6102943420410156,0.0566236786544323,2.304795026779175
241076,1608.42737248,0.06810325384140015,0.058161765336990356,0.9869673848152161,-0.36024338006973267,1.4214584827423096,5.17874002456665
241086,1608.437241414,0.07968931645154953,0.06373707205057144,0.9861701726913452,0.09892755001783371,0.8029115796089172,5.4741363525390625
241096,1608.446886304,0.06795144826173782,0.05544942617416382,0.9851078391075134,0.3094332218170166,-0.929135799407959,4.419034481048584
241106,1608.456947205,0.053726691752672195,0.04185016080737114,0.9895607233047485,0.06686028838157654,0.23140859603881836,2.7243971824645996
241116,1608.467841512,0.059887852519750595,0.03604232892394066,0.99654620885849,-0.537776529788971,2.1297128200531006,2.9677236080169678
241126,1608.476255735,0.07035145163536072,0.03750287741422653,0.9989947080612183,0.04191351309418678,2.9853057861328125,4.713752269744873
241136,1608.487244089,0.09810774028301239,0.04072779417037964,1.0047211647033691,-0.44289761781692505,1.9517872333526611,4.102870941162109
241146,1608.496700206,0.09859473258256912,0.04762563109397888,1.0048465728759766,0.28546959161758423,-0.8271592855453491,1.3338062763214111
241156,1608.50682093,0.06280319392681122,0.049342524260282516,0.9984138011932373,0.37697461247444153,-2.595193386077881,-0.1826665699481964
241166,1608.517303636,0.047359004616737366,0.04657287523150444,1.0018775463104248,-0.37511053681373596,-1.1301296949386597,0.6571783423423767
241176,1608.526698059,0.0693998858332634,0.042973391711711884,1.0000046491622925,-0.5826609134674072,1.967118740081787,0.5934680700302124
241186,1608.537413645,0.07884801179170609,0.05087951198220253,0.9938268661499023,0.06512796133756638,1.118765115737915,0.6525833010673523
241196,1608.546852671,0.08486442267894745,0.04876062273979187,0.9935365319252014,0.20073533058166504,-0.7748180627822876,-1.2114224433898926
241206,1608.55631689,0.06843220442533493,0.04627658799290657,0.9963836073875427,0.5279545783996582,-1.7875962257385254,-3.474026918411255
241216,1608.565992985,0.05737685784697533,0.05086374282836914,0.9924450516700745,-0.36756107211112976,-0.5125858783721924,-3.4058187007904053
241226,1608.576831178,0.06503535062074661,0.04180225357413292,0.9938703775405884,-0.9268816113471985,1.547163724899292,-1.177841067314148
241236,1608.586895746,0.08440117537975311,0.03703748434782028,0.998663604259491,-1.273592233657837,1.5223349332809448,0.5212404131889343
241246,1608.596463422,0.09511826932430267,0.04902027174830437,1.0026071071624756,-0.5080028176307678,-1.3648097515106201,-0.12972669303417206
241256,1608.606564759,0.0895351991057396,0.051720134913921356,1.0003724098205566,0.40041524171829224,-2.959294557571411,-2.739384412765503
241266,1608.617064426,0.07257319986820221,0.05320465937256813,0.9969061613082886,0.7426941394805908,-3.109922409057617,-3.8763158321380615
241276,1608.62795607,0.049943707883358,0.04941357672214508,0.9848839640617371,0.46456170082092285,-2.029815673828125,-1.1831121444702148
241286,1608.635415925,0.04166703298687935,0.04289062321186066,0.9822704195976257,-0.9311388731002808,-0.13698574900627136,3.3581490516662598
241296,1608.645837451,0.04661643132567406,0.03705704212188721,0.9845296144485474,-1.9481004476547241,1.3289861679077148,5.531449794769287
241306,1608.655607359,0.06738413870334625,0.05743139982223511,0.9876508712768555,-2.376242160797119,2.3521921634674072,4.052135467529297
241316,1608.665013968,0.08839190006256104,0.05959733948111534,0.9893072843551636,-2.2128713130950928,2.5594944953918457,0.6879729628562927
241326,1608.675561708,0.08497142791748047,0.04420022666454315,0.9963045120239258,-1.9683419466018677,0.9305492639541626,-0.7227131724357605
241336,1608.685818372,0.08285947889089584,0.039531175047159195,1.0035159587860107,-1.392533779144287,-0.23195835947990417,-0.5207546353340149
241346,1608.695819929,0.08660856634378433,0.04952790215611458,1.0080506801605225,-1.05172860622406,-0.5482656955718994,-1.3898742198944092
241356,1608.706898795,0.08436684310436249,0.04821034148335457,1.0057131052017212,-0.12050271779298782,-1.372318148612976,-1.5805341005325317
241366,1608.716786803,0.0675562173128128,0.031223908066749573,1.0003317594528198,0.7694157361984253,-2.2187676429748535,-1.6633148193359375
241376,1608.72650812,0.048479631543159485,0.02958051860332489,0.9851897954940796,-0.4635872542858124,-1.4920017719268799,-1.3522826433181763
241386,1608.736666474,0.053543977439403534,0.03885086253285408,0.9778830409049988,-0.5334316492080688,1.0619741678237915,-0.9270688891410828
241396,1608.74646721,0.07839947193861008,0.04355872422456741,0.9816053509712219,-1.542371153831482,2.011824131011963,-0.8779360055923462
241406,1608.755806389,0.07856807857751846,0.05560856685042381,0.984789252281189,-1.0233783721923828,0.4293311834335327,0.08744220435619354
241416,1608.766785833,0.0747569277882576,0.05633537471294403,0.9900959134101868,0.03777662292122841,-0.5572398900985718,0.7703851461410522
241426,1608.775844233,0.07344452291727066,0.043278612196445465,1.0046135187149048,-0.3271664083003998,0.06547562032938004,1.3453929424285889
241436,1608.786478168,0.083258718252182,0.04864621162414551,1.00698983669281,-0.2584257423877716,0.7574598789215088,1.6256086826324463
241446,1608.796854177,0.08164825290441513,0.05294717103242874,0.9998063445091248,1.545782208442688,-0.07117410749197006,0.5789458155632019
241456,1608.807127984,0.06115516647696495,0.04584959149360657,0.9918833374977112,1.8682849407196045,-1.6035407781600952,-2.1226518154144287
241466,1608.817127228,0.038013678044080734,0.05310635268688202,0.9840125441551208,1.3256871700286865,-0.41158726811408997,-3.6940746307373047
241476,1608.826911591,0.044894106686115265,0.06274060904979706,0.978886067867279,1.5636636018753052,3.1229915618896484,-2.794323682785034
241486,1608.836928624,0.06545308232307434,0.05286185443401337,0.9882286190986633,0.9484602212905884,4.93197774887085,-0.37352076172828674
241496,1608.847148426,0.07122103124856949,0.039336398243904114,1.001330018043518,-0.5177003741264343,3.652211904525757,2.0701241493225098
241506,1608.856370724,0.07632347196340561,0.047812849283218384,1.001092553138733,0.11995101720094681,2.783473253250122,3.290306806564331
241516,1608.867300782,0.07799544185400009,0.04352472722530365,1.0031846761703491,1.370092749595642,2.847097873687744,2.6982226371765137
241526,1608.876961285,0.07072100788354874,0.04121013358235359,1.0018503665924072,0.6044895052909851,2.541273832321167,1.7481614351272583
241536,1608.887025757,0.06585972756147385,0.04222456365823746,1.0007295608520508,0.18650123476982117,2.181910276412964,0.8423163890838623
241546,1608.896276615,0.06267041712999344,0.03980858996510506,0.99811851978302,0.03229035809636116,2.1001453399658203,1.7264388799667358
241556,1608.906199396,0.062344927340745926,0.038281090557575226,0.9917164444923401,-0.4086330533027649,2.6486382484436035,5.473623752593994
241566,1608.916473814,0.061062928289175034,0.04313695430755615,0.9857348799705505,-0.23510904610157013,3.152928352355957,7.2399444580078125
241576,1608.925991036,0.06465975195169449,0.058535054326057434,0.9809878468513489,-0.6270941495895386,3.7318472862243652,5.586320877075195
241586,1608.936069041,0.07903691381216049,0.0619528703391552,0.9840428829193115,-0.31896644830703735,3.941439390182495,3.184865951538086
241596,1608.946700753,0.08104659616947174,0.048642873764038086,0.9942016005516052,1.3660757541656494,2.383751630783081,1.1346057653427124
241606,1608.956114822,0.0788300633430481,0.037127867341041565,1.013393521308899,2.29962420463562,0.3341585397720337,-1.4297404289245605
241616,1608.966539756,0.0812341645359993,0.03155544772744179,1.02647864818573,1.513738751411438,-0.8667588233947754,-4.9171271324157715
241626,1608.976516273,0.07730274647474289,0.030256034806370735,1.0268546342849731,2.1578779220581055,-0.6636425852775574,-5.9760308265686035
241636,1608.985732944,0.07204705476760864,0.0342729315161705,1.0134961605072021,1.3742173910140991,-1.9414427280426025,-4.123366832733154
241646,1608.995579322,0.06046362221240997,0.050659969449043274,0.9937918186187744,1.7372359037399292,-2.290588617324829,-2.198221445083618
241656,1609.005238872,0.053687527775764465,0.06638561934232712,0.9806202054023743,2.5543599128723145,-1.0870811939239502,-1.296165943145752
241666,1609.015999441,0.04925862327218056,0.05937064439058304,0.9745200276374817,1.5919263362884521,0.7443327903747559,-1.2395168542861938
241676,1609.026110111,0.047512974590063095,0.055657874792814255,0.9748091101646423,1.3615916967391968,2.0365993976593018,0.2386268526315689
241686,1609.035765541,0.05536680296063423,0.05275575816631317,0.989575207233429,0.8159187436103821,2.5509519577026367,2.8136837482452393
241696,1609.047042419,0.07679297775030136,0.04738723859190941,1.0050421953201294,-0.012693320401012897,2.7799456119537354,3.354337215423584
241706,1609.05619004,0.07879117131233215,0.0478164441883564,1.0085071325302124,-1.1711946725845337,1.5614416599273682,2.613410234451294
241716,1609.066089011,0.07153801620006561,0.050334710627794266,1.003959059715271,-0.908787190914154,0.11998063325881958,1.8613837957382202
241726,1609.075936562,0.06763722747564316,0.05737961456179619,0.9914695024490356,-0.5405380725860596,0.5287569761276245,1.6130077838897705
241736,1609.085906042,0.052443668246269226,0.049263354390859604,0.9847154021263123,-0.3396923542022705,1.3456802368164062,1.4291996955871582
241746,1609.096073752,0.03737850859761238,0.04406000301241875,0.9832186698913574,-0.553855836391449,1.9653234481811523,1.2256972789764404
241756,1609.106740762,0.051108863204717636,0.05279376357793808,0.9814201593399048,-1.0547373294830322,3.7371106147766113,0.9594305157661438
241766,1609.115661302,0.062035515904426575,0.05737763270735741,0.9908968210220337,0.5709313154220581,4.271199703216553,1.6795220375061035
241776,1609.126808327,0.07167521864175797,0.05906437337398529,0.9954893589019775,1.4863930940628052,3.297593116760254,3.5050108432769775
241786,1609.135721665,0.08474049717187881,0.03986896574497223,1.0143016576766968,0.9554691910743713,2.02012300491333,4.294848918914795
241796,1609.147071596,0.08899160474538803,0.03147086128592491,1.020786166191101,1.070359468460083,0.7580575942993164,2.18892502784729
241806,1609.15677108,0.07399503886699677,0.04281887784600258,1.0135761499404907,1.2142632007598877,-1.1712840795516968,-1.1032135486602783
241816,1609.166602969,0.04979882389307022,0.03833897411823273,1.003227710723877,0.004322264343500137,-1.6208292245864868,-3.322842836380005
241826,1609.175539746,0.04254837706685066,0.04057573899626732,0.9991544485092163,-0.10145390778779984,0.037941690534353256,-2.646514415740967
241836,1609.186248916,0.047352731227874756,0.04534738138318062,1.0004264116287231,-0.5528046488761902,1.4397509098052979,0.23354287445545197
241846,1609.196046758,0.06264934688806534,0.05074600130319595,0.9972877502441406,-0.7206735610961914,1.8085311651229858,2.9373550415039062
241856,1609.20694852,0.062143467366695404,0.05942075327038765,0.9929131865501404,-0.635307252407074,1.199763298034668,3.8877310752868652
241866,1609.216931891,0.062365416437387466,0.07018143683671951,0.9853516221046448,-1.2449655532836914,0.7723422646522522,2.0690224170684814
241876,1609.227282502,0.05863645672798157,0.07441604137420654,0.9773654341697693,0.14910511672496796,1.5702931880950928,1.439805030822754
241886,1609.237067084,0.056482311338186264,0.06427278369665146,0.9720242619514465,1.2183185815811157,2.27821946144104,2.45328688621521
241896,1609.246348798,0.05739254131913185,0.04514724388718605,0.9822380542755127,1.257252812385559,2.0048739910125732,3.2134084701538086
241906,1609.256520543,0.06083182245492935,0.03501605987548828,1.00074303150177,1.1509931087493896,1.853623867034912,3.1764605045318604
241916,1609.266442175,0.06382284313440323,0.03252675011754036,1.014525294303894,1.102907419204712,1.6698583364486694,2.1693367958068848
241926,1609.276118193,0.056875310838222504,0.027066197246313095,1.0163496732711792,0.27549049258232117,1.7568304538726807,1.626638412475586
241936,1609.286942287,0.06330398470163345,0.01972997933626175,1.0213640928268433,-1.1471651792526245,1.682947039604187,1.5544483661651611
241946,1609.296257575,0.07158934324979782,0.026839671656489372,1.0195344686508179,-1.7314376831054688,1.056301474571228,1.653633713722229
241956,1609.307265532,0.08156394213438034,0.055135130882263184,1.0071295499801636,-0.7938046455383301,-0.402538001537323,1.9382537603378296
241966,1609.315568765,0.06890888512134552,0.0666118934750557,0.9895002841949463,0.4581737220287323,-1.3663666248321533,1.1443685293197632
241976,1609.327094949,0.03706194832921028,0.06663244217634201,0.9733461141586304,0.3149334192276001,-0.6335967779159546,0.779114842414856
241986,1609.336509325,0.030831262469291687,0.05798022076487541,0.9695751070976257,-0.3916636109352112,1.301535725593567,1.3085144758224487
241996,1609.346843069,0.03910140320658684,0.06551863998174667,0.9728410243988037,0.03016744554042816,3.3945891857147217,3.707137107849121
242006,1609.356227691,0.048465028405189514,0.0556337870657444,0.9836928248405457,0.1260700821876526,3.4034852981567383,7.014952659606934
242016,1609.366975322,0.05837273597717285,0.044459033757448196,1.0032979249954224,0.5805680155754089,2.632636547088623,7.380203723907471
242026,1609.376853386,0.0673828125,0.0485670268535614,1.0146948099136353,0.4551395773887634,2.529585123062134,4.092746734619141
242036,1609.386384025,0.07992593944072723,0.04405048489570618,1.020302414894104,0.4530715048313141,2.1157824993133545,-0.4072270095348358
242046,1609.396160823,0.08041761815547943,0.0336621068418026,1.015892744064331,1.0151095390319824,0.46251171827316284,-4.420483589172363
242056,1609.406402659,0.06789116561412811,0.02853173203766346,1.006788730621338,0.8141584992408752,-1.8472018241882324,-5.70095157623291
242066,1609.415592826,0.05441786348819733,0.031917452812194824,0.9917882084846497,-0.22854767739772797,-1.663831114768982,-3.9757726192474365
242076,1609.426272728,0.03380958363413811,0.0516832172870636,0.9742899537086487,-0.9219223856925964,-0.0007167975418269634,1.64543879032135
242086,1609.436237352,0.02725912071764469,0.06690111756324768,0.9709292650222778,-0.6654381155967712,1.6025820970535278,7.051792621612549
242096,1609.445743804,0.04948486015200615,0.06854288280010223,0.9839046597480774,-0.3293166160583496,3.773526430130005,8.723491668701172
242106,1609.456278423,0.07951325178146362,0.0577935054898262,1.0011097192764282,-0.04162082076072693,3.011826753616333,5.780718803405762
242116,1609.465767842,0.0851169228553772,0.0477561391890049,0.9986050128936768,-0.12534856796264648,0.3863881826400757,2.0749521255493164
242126,1609.475536759,0.04754622280597687,0.05207546055316925,0.983802080154419,0.685357391834259,-1.298582673072815,1.9245527982711792
242136,1609.486065402,0.02851998433470726,0.03961100056767464,0.9853953719139099,0.7922384142875671,0.7724357843399048,2.989893674850464
242146,1609.495997842,0.03754277899861336,0.020507166162133217,0.9972983598709106,0.06499744951725006,3.8365776538848877,1.6182037591934204
242156,1609.506838753,0.04806065931916237,0.031821124255657196,1.0059841871261597,-0.585874617099762,3.244718074798584,-1.0856349468231201
242166,1609.516696887,0.07404347509145737,0.04937705770134926,1.0106064081192017,0.4421440064907074,1.545355200767517,-2.3376896381378174
242176,1609.526087072,0.07919199019670486,0.05906828120350838,1.0119683742523193,0.0058058216236531734,0.009702413342893124,-1.6040252447128296
242186,1609.53554616,0.07209816575050354,0.05524175614118576,1.010445475578308,-0.13025012612342834,-0.9906845092773438,0.9506517052650452
242196,1609.54628295,0.056394003331661224,0.037564005702733994,1.002387523651123,-0.19719384610652924,-0.9078724980354309,3.1774704456329346
242206,1609.555739112,0.030795741826295853,0.04408258572220802,0.9939203262329102,-1.4025052785873413,-0.6829822063446045,4.207880020141602
242216,1609.565907024,0.038454845547676086,0.06299962103366852,0.9848664999008179,-0.8136054277420044,1.6518878936767578,1.783127784729004
242226,1609.575764036,0.06366483122110367,0.07034017890691757,0.9850573539733887,0.2417818158864975,2.798840045928955,-2.906147003173828
242236,1609.585748935,0.0671255961060524,0.07281719893217087,0.9821203351020813,1.467489242553711,0.7053221464157104,-4.832046031951904
242246,1609.595962386,0.04421352595090866,0.059258151799440384,0.9800571799278259,1.778380036354065,-0.6943268775939941,-2.7685606479644775
242256,1609.60610112,0.014680917374789715,0.03330487385392189,0.9809050559997559,0.8867173790931702,2.2101082801818848,2.166534423828125
242266,1609.615592383,0.022621026262640953,0.026234708726406097,0.9949368834495544,-0.6851066946983337,5.6604695320129395,5.349575996398926
242276,1609.625299751,0.06583279371261597,0.04613171145319939,1.0073308944702148,-0.5987745523452759,6.430199146270752,6.473907470703125
242286,1609.636532632,0.09879978001117706,0.04930070415139198,1.016582727432251,1.2360042333602905,3.426457643508911,3.9215047359466553
242296,1609.646760546,0.0829140692949295,0.03759158030152321,1.0247527360916138,1.1989474296569824,-1.4819304943084717,-0.30120959877967834
242306,1609.657045014,0.051074862480163574,0.030820392072200775,1.0171315670013428,-0.07809539884328842,-2.017178535461426,-4.395259857177734
242316,1609.666340224,0.026407388970255852,0.03882559388875961,1.002788782119751,-0.1566605120897293,-0.21537354588508606,-4.485611438751221
242326,1609.675885064,0.025620870292186737,0.05740441754460335,0.989996075630188,-0.5380281209945679,1.5167328119277954,-0.1831039935350418
242336,1609.686640677,0.04528528079390526,0.06337377429008484,0.983220636844635,0.566316545009613,3.098318338394165,5.119593143463135
242346,1609.69631139,0.06730753183364868,0.0626586526632309,0.9855711460113525,1.3396244049072266,2.1953954696655273,5.481020927429199
242356,1609.706741574,0.052797865122556686,0.06181367486715317,0.9835121035575867,0.7673605680465698,0.9058185815811157,3.051990509033203
242366,1609.716026047,0.02342808246612549,0.0607106052339077,0.986733615398407,1.169782042503357,0.8917394280433655,1.9790127277374268
242376,1609.726131509,0.027174746617674828,0.04496479779481888,0.9959890842437744,0.4006764590740204,3.6241118907928467,1.8476053476333618
242386,1609.736747725,0.057979196310043335,0.04450790211558342,1.011440396308899,1.0676521062850952,4.8961687088012695,2.2103092670440674
242396,1609.746132507,0.08786091953516006,0.03327830508351326,1.0207637548446655,1.70276939868927,2.7416083812713623,1.9888012409210205
242406,1609.755967842,0.08246996253728867,0.02433004416525364,1.0202449560165405,1.411841630935669,-1.2684473991394043,0.669561505317688
242416,1609.765638392,0.04921042546629906,0.03099045902490616,1.010185956954956,0.07423190772533417,-2.947293519973755,0.043748319149017334
242426,1609.776582768,0.03585305064916611,0.04786905273795128,0.9947642087936401,-1.0847232341766357,-0.8514171838760376,-0.27873697876930237
242436,1609.786750205,0.030363891273736954,0.06875898689031601,0.9813891053199768,-0.38553163409233093,0.7238582372665405,0.1391153782606125
242446,1609.796747704,0.034273747354745865,0.07205849885940552,0.9737217426300049,-0.43825632333755493,1.3458117246627808,1.2000473737716675
242456,1609.806936723,0.03701452538371086,0.06292833387851715,0.9729832410812378,-0.01639808900654316,1.6656938791275024,2.4459500312805176
242466,1609.815899067,0.044107869267463684,0.07352729886770248,0.9737275242805481,0.2599917948246002,2.8654627799987793,4.236545562744141
242476,1609.825977485,0.047613952308893204,0.07191479951143265,0.9817993640899658,1.054335355758667,3.6702253818511963,4.811489105224609
242486,1609.835265454,0.04892652854323387,0.05068422108888626,0.9955494999885559,1.6957136392593384,3.577908754348755,3.280233383178711
242496,1609.846253617,0.05417318269610405,0.03749288246035576,1.0087240934371948,0.3038124144077301,2.5397415161132812,-0.05747309699654579
242506,1609.857096817,0.05749848857522011,0.03386818245053291,1.016488790512085,0.3951519727706909,1.6869382858276367,-1.5820070505142212
242516,1609.866529406,0.06438630074262619,0.02854650281369686,1.0234509706497192,0.20177440345287323,-0.11374500393867493,-1.8823782205581665
242526,1609.876100427,0.04926205053925514,0.027384571731090546,1.0200940370559692,-0.7908605337142944,-1.0771336555480957,-2.6593804359436035
242536,1609.88540224,0.04341239482164383,0.033996228128671646,1.0076086521148682,-1.5725133419036865,-0.6964497566223145,-3.4179487228393555
242546,1609.895728108,0.034904029220342636,0.05141104385256767,0.9941224455833435,-0.7046700119972229,0.12599173188209534,-2.929129123687744
242556,1609.905511512,0.03835441544651985,0.06359966099262238,0.9855762124061584,-0.27266982197761536,0.8322024345397949,-1.973895788192749
242566,1609.915026215,0.05023675411939621,0.06574206799268723,0.9817261695861816,0.8665342926979065,0.9683237075805664,0.17411470413208008
242576,1609.92607888,0.045727405697107315,0.06372722238302231,0.980388879776001,0.5576052069664001,0.45709502696990967,2.5746402740478516
242586,1609.93657829,0.04071948304772377,0.062382206320762634,0.9871944785118103,1.027766227722168,0.6699673533439636,2.7570817470550537
242596,1609.945801519,0.03139334172010422,0.04965221509337425,0.995028018951416,-0.19139844179153442,1.487870216369629,0.9194897413253784
242606,1609.955853205,0.04256223142147064,0.045392394065856934,1.0015069246292114,0.19336171448230743,2.035874605178833,-0.22644053399562836
242616,1609.966052814,0.05974383279681206,0.04351462423801422,1.0052062273025513,-0.5702757835388184,1.7238210439682007,-0.3612212538719177
242626,1609.97603385,0.06072879210114479,0.047149475663900375,1.0040948390960693,0.24381907284259796,0.26448649168014526,-0.345775306224823
242636,1609.986593738,0.04644744098186493,0.049850091338157654,1.0038866996765137,0.5278612971305847,-0.673860490322113,-0.6259909272193909
242646,1609.995738438,0.031037503853440285,0.05119534209370613,1.009377360343933,1.1752513647079468,-0.36319515109062195,-0.043142691254615784
242656,1610.006435225,0.02705414593219757,0.04982605576515198,1.0123406648635864,0.020863844081759453,0.9132868051528931,0.7962213754653931
242666,1610.015748793,0.03257300704717636,0.05043062940239906,1.0098481178283691,-0.5577775835990906,2.4573936462402344,1.2914609909057617
242676,1610.025898343,0.05886281281709671,0.05533510074019432,1.0030118227005005,0.25984326004981995,2.7102394104003906,1.597895622253418
242686,1610.035545266,0.06146267428994179,0.05531864985823631,0.9949043393135071,1.3837957382202148,0.0915747806429863,0.5811665654182434
242696,1610.046136033,0.03264874219894409,0.05112352967262268,0.9842652082443237,1.2860780954360962,-1.5804399251937866,0.2983238101005554
242706,1610.056035214,0.004966855514794588,0.04775349050760269,0.9763147830963135,0.008543714880943298,1.1051932573318481,3.533745765686035
242716,1610.066366153,0.016382502391934395,0.05111679062247276,0.9755297303199768,-0.5375773906707764,5.7609758377075195,8.264175415039062
242726,1610.075470695,0.04490014165639877,0.06552080065011978,0.98293137550354,0.46971309185028076,6.808269023895264,10.441839218139648
242736,1610.085998972,0.06715064495801926,0.04501943290233612,1.0029469728469849,-0.09474336355924606,4.1962103843688965,8.54222297668457
242746,1610.095332146,0.08179869502782822,0.03410940244793892,1.0204359292984009,-0.3324149549007416,1.3720343112945557,3.219942808151245
242756,1610.106250226,0.08391804993152618,0.05034681037068367,1.0159473419189453,0.6535031199455261,-0.5320339202880859,-1.2911510467529297
242766,1610.116100121,0.0571289099752903,0.0409514345228672,1.0101643800735474,2.276831865310669,-2.467353105545044,-3.5045347213745117
242776,1610.126227247,0.02460426278412342,0.03063022717833519,1.0058629512786865,1.131095051765442,-3.189739465713501,-4.198120594024658
242786,1610.136126851,0.023371214047074318,0.044155169278383255,0.9996641278266907,0.6586840152740479,-0.7306749820709229,-2.3168911933898926
242796,1610.145543838,0.03233352676033974,0.05752731114625931,0.9853957891464233,0.5436429381370544,1.192759394645691,1.1385618448257446
242806,1610.155892829,0.024999627843499184,0.07245075702667236,0.9754977822303772,1.4431126117706299,0.4194662272930145,3.976375102996826
242816,1610.165382685,0.02309643290936947,0.06673260778188705,0.9774782657623291,0.14819443225860596,1.2691245079040527,3.720667839050293
242826,1610.175782572,0.031086813658475876,0.05096198990941048,0.9872387647628784,-0.7732885479927063,2.7446844577789307,2.3080215454101562
242836,1610.186767055,0.037229396402835846,0.049665044993162155,0.9877878427505493,-0.770313024520874,3.3314151763916016,3.2187798023223877
242846,1610.196318686,0.04707469791173935,0.05230291187763214,0.9982982873916626,-1.0652066469192505,2.5599663257598877,5.4907708168029785
242856,1610.205779776,0.07145405560731888,0.04603476822376251,1.0141737461090088,-0.8076141476631165,2.0419018268585205,6.674655914306641
242866,1610.215029439,0.07476821541786194,0.03882603719830513,1.018543004989624,0.8857195973396301,0.3780549466609955,5.028468608856201
242876,1610.225498798,0.03830980882048607,0.044616878032684326,1.0051802396774292,0.560455322265625,-1.9004310369491577,1.2238446474075317
242886,1610.235337761,0.01136321946978569,0.046246521174907684,0.9948283433914185,0.7394251823425293,-1.3032976388931274,-1.8313794136047363
242896,1610.246244093,0.011810108087956905,0.04727453738451004,0.9922221899032593,0.3803618252277374,1.7395169734954834,-2.831461191177368
242906,1610.25634118,0.03420505300164223,0.059656720608472824,0.985465407371521,-0.7837492227554321,3.425830125808716,-0.9216428399085999
242916,1610.265798913,0.05970711633563042,0.06872200965881348,0.9851587414741516,-0.08437567204236984,2.3685457706451416,3.217052698135376
242926,1610.27563669,0.054683618247509,0.05600735917687416,0.9932884573936462,0.07236219197511673,-0.00715868454426527,5.487170219421387
242936,1610.286528562,0.04101228341460228,0.037639640271663666,0.9994209408760071,-0.7682533860206604,-0.1895044595003128,3.9437849521636963
242946,1610.295603963,0.03290306031703949,0.04817505180835724,1.0007262229919434,-0.38715147972106934,0.7400795221328735,1.6551971435546875
242956,1610.306110892,0.036583200097084045,0.051532991230487823,0.9984415769577026,-0.38290631771087646,0.8126637935638428,0.11009648442268372
242966,1610.316205745,0.04392217472195625,0.04989464208483696,0.9986441135406494,-0.5144248604774475,0.7727737426757812,0.6091827154159546
242976,1610.32617329,0.046467773616313934,0.06073667109012604,0.9932960867881775,-0.17617571353912354,0.7164056301116943,2.621361017227173
242986,1610.3354805,0.044621583074331284,0.056991640478372574,0.9950308203697205,0.8741728067398071,-0.1291060745716095,3.5645525455474854
242996,1610.345761621,0.03444250673055649,0.05261915922164917,0.9951996207237244,1.0326461791992188,0.1934330314397812,2.6684274673461914
243006,1610.356131975,0.027229687198996544,0.049161843955516815,1.002321720123291,1.2904173135757446,-0.19983939826488495,1.9211173057556152
243016,1610.366398771,0.02703649178147316,0.04139892756938934,1.0065816640853882,0.29034706950187683,1.0153329372406006,0.213539257645607
243026,1610.376088538,0.0394008606672287,0.04152556136250496,1.0119729042053223,-0.5492559671401978,1.4655179977416992,-0.7637465000152588
243036,1610.385113272,0.05512699857354164,0.04492199420928955,1.0118188858032227,-0.4843268394470215,0.5035299062728882,-1.3279491662979126
243046,1610.39561839,0.051347725093364716,0.047869760543107986,1.0115420818328857,-0.744322657585144,-1.5650389194488525,0.1789344847202301
243056,1610.405365548,0.03989211842417717,0.04996918886899948,0.9989683032035828,-0.7796316146850586,-1.9911569356918335,2.0311825275421143
243066,1610.415313696,0.024180738255381584,0.05221618711948395,0.9906175136566162,-1.2446186542510986,-1.0103974342346191,2.401355504989624
243076,1610.426112055,0.0341050922870636,0.057429324835538864,0.9882437586784363,-1.367828130722046,0.6128069162368774,1.0593225955963135
243086,1610.435068875,0.03611704707145691,0.060987457633018494,0.9863971471786499,0.2894011437892914,1.1261776685714722,1.01046621799469
243096,1610.445784799,0.041461843997240067,0.05585208907723427,0.986646831035614,0.773958146572113,0.30590951442718506,0.7559779286384583
243106,1610.457746605,0.05178508162498474,0.04730452597141266,0.9950320720672607,1.196019172668457,0.04016933962702751,0.19593866169452667
243116,1610.466215624,0.05032462254166603,0.04730506241321564,0.993827223777771,1.6998553276062012,-0.37824898958206177,-0.12035734951496124
243126,1610.475591943,0.04076967015862465,0.03589022532105446,1.0018316507339478,1.7795748710632324,-1.0447105169296265,-1.4514294862747192
243136,1610.485726305,0.04013095051050186,0.034959662705659866,1.0133527517318726,0.7014716267585754,-1.6605573892593384,-2.592158555984497
243146,1610.496456437,0.028979578986763954,0.033342763781547546,1.02109956741333,2.3163411617279053,-2.867304801940918,-2.2066757678985596
243156,1610.505262352,0.03728004917502403,0.04892224445939064,1.004459261894226,1.7185086011886597,-4.0096659660339355,3.174720287322998
243166,1610.515093351,0.05232783779501915,0.062319379299879074,1.0017502307891846,-3.025867462158203,1.0579218864440918,6.369676113128662
243176,1610.525878158,0.03763781487941742,0.052283503115177155,0.9990233778953552,1.7375792264938354,-0.6650555729866028,5.658641338348389
243186,1610.53575797,0.032924097031354904,0.06539664417505264,0.989407479763031,-1.4266133308410645,-1.9896135330200195,3.0270707607269287
243196,1610.545491643,0.026364829391241074,0.0757967010140419,0.9900445938110352,1.038082242012024,-1.7101800441741943,1.306105375289917
243206,1610.557263248,0.030255593359470367,0.06915336847305298,0.9939289093017578,0.6952925324440002,0.3384147584438324,0.004472752101719379
243216,1610.564988194,0.04156631603837013,0.06256803125143051,0.9933103322982788,0.4927324652671814,0.806346595287323,-0.0813613086938858
243226,1610.575344269,0.05241278558969498,0.05427208170294762,0.9949817657470703,-0.8615366816520691,-0.48320725560188293,2.5263519287109375
243236,1610.584335439,0.05970494821667671,0.048329804092645645,0.9996742010116577,-0.34183216094970703,-1.3891350030899048,4.652694225311279
243246,1610.595019874,0.06523686647415161,0.04225330427289009,1.005266785621643,-0.4694918096065521,-2.0777761936187744,2.3673007488250732
243256,1610.605050092,0.049491748213768005,0.03315316140651703,1.0032509565353394,-0.6639471054077148,-3.1831061840057373,-2.4434409141540527
243266,1610.615369176,0.03288952633738518,0.032666582614183426,1.0022828578948975,0.6428847908973694,-3.7377614974975586,-5.693343162536621
243276,1610.625363617,0.033186934888362885,0.03416172415018082,0.994384229183197,0.3352575898170471,-2.424644947052002,-4.335732460021973
243286,1610.634621219,0.026338262483477592,0.04355960711836815,0.9944159984588623,-0.5442148447036743,-2.2037596702575684,0.7401270270347595
243296,1610.644486806,0.037030499428510666,0.06922341883182526,0.9829672574996948,-1.221283197402954,-0.5100199580192566,6.433714389801025
243306,1610.655500167,0.04588323086500168,0.07338211685419083,0.9807241559028625,-0.4602527320384979,0.21832908689975739,9.051888465881348
243316,1610.666030915,0.04591172933578491,0.06703447550535202,0.9819073677062988,-0.5327584743499756,-0.4310447573661804,5.482068061828613
243326,1610.67487255,0.037425167858600616,0.06451200693845749,0.9807079434394836,-0.4921429753303528,-1.0259608030319214,-0.20173871517181396
243336,1610.685823729,0.03591528907418251,0.057727739214897156,0.9872547388076782,0.10798820853233337,0.19912026822566986,-3.028865098953247
243346,1610.695020806,0.04314744845032692,0.04369260370731354,0.9993439316749573,-0.5161080956459045,0.48926544189453125,-2.4117226600646973
243356,1610.704597796,0.04139554128050804,0.034054968506097794,1.004075288772583,-2.21219539642334,0.9592839479446411,3.9736180305480957
243366,1610.71496342,0.043828316032886505,0.04174990952014923,1.001147747039795,-1.4075255393981934,1.2219183444976807,10.868828773498535
243376,1610.724783495,0.0420537069439888,0.05006498843431473,0.9997000098228455,-0.8441850543022156,1.3265595436096191,11.017967224121094
243386,1610.735761884,0.03978974372148514,0.05274319648742676,1.0020426511764526,-0.3804084360599518,0.8789354562759399,6.437837600708008
243396,1610.745672595,0.04322187229990959,0.04613958299160004,1.0059367418289185,-0.6098028421401978,0.3273636996746063,0.9793480038642883
243406,1610.754830343,0.046622540801763535,0.051377054303884506,1.0022393465042114,-0.9147154092788696,0.32882604002952576,1.0640658140182495
243416,1610.765406878,0.06148449331521988,0.053671181201934814,0.997683584690094,-0.6828922629356384,0.4910059869289398,5.10804557800293
243426,1610.775699281,0.06126441806554794,0.04694826155900955,1.001214623451233,-0.8575769066810608,-1.0827633142471313,7.049323558807373
243436,1610.785620447,0.04468897730112076,0.04843881353735924,0.997319221496582,-1.7630528211593628,-2.259168863296509,4.908053398132324
243446,1610.794713576,0.03318947181105614,0.05172547325491905,0.9931430816650391,-0.5809585452079773,-1.210166335105896,1.7351399660110474
243456,1610.805794044,0.03015691041946411,0.046443771570920944,0.9895866513252258,0.16804201900959015,-0.13474979996681213,0.0889258086681366
243466,1610.815419281,0.0328710712492466,0.05164450407028198,0.9901474714279175,-0.6327813863754272,-0.19307824969291687,0.1722182184457779
243476,1610.825630804,0.04036295786499977,0.04917032644152641,0.989883303642273,-1.0271706581115723,0.7049674391746521,3.09649395942688
243486,1610.834797028,0.040317464619874954,0.04919786751270294,0.9889621734619141,0.19706258177757263,0.7864115834236145,4.826312065124512
243496,1610.844494935,0.041091322898864746,0.05245300009846687,0.9884722828865051,-0.3683631420135498,0.7012609839439392,3.563305377960205
243506,1610.854531219,0.054886966943740845,0.04585706442594528,1.0003314018249512,-0.5262415409088135,0.5337077975273132,1.7369472980499268
243516,1610.865338589,0.05751357972621918,0.04206877946853638,1.0117870569229126,-0.2777075469493866,-0.40517544746398926,0.22978638112545013
243526,1610.87537177,0.051906269043684006,0.0460001602768898,1.0129551887512207,0.5245460867881775,-1.847369909286499,0.4400482475757599
243536,1610.884827695,0.03477759286761284,0.030714336782693863,1.010606288909912,-0.18825913965702057,-1.8457856178283691,0.3230821490287781
243546,1610.895240406,0.03050846979022026,0.035579487681388855,1.0082769393920898,-0.7577778100967407,-1.0216798782348633,0.1315547674894333
243556,1610.905033875,0.05717327073216438,0.057540737092494965,1.0026065111160278,0.08075325936079025,0.09927578270435333,-0.574234664440155
243566,1610.915037244,0.0603320449590683,0.05549109727144241,0.9995641708374023,1.6322046518325806,-1.4747856855392456,-0.9584565758705139
243576,1610.925388341,0.03424494341015816,0.05719038471579552,0.9954726099967957,0.04247027635574341,-3.7570688724517822,-0.8916361927986145
243586,1610.93631705,0.0182644110172987,0.063431516289711,0.9950539469718933,-0.42122986912727356,-1.67271089553833,-0.3845153748989105
243596,1610.945234485,0.03286038711667061,0.061591897159814835,0.9965077638626099,0.7249274253845215,1.365441083908081,0.3931823670864105
243606,1610.955152573,0.04871438071131706,0.06242227926850319,0.9974833726882935,0.8427715301513672,1.1549205780029297,0.7389582395553589
243616,1610.965520353,0.05674223229289055,0.05776930972933769,0.9959248900413513,1.7807881832122803,-0.8226414918899536,0.5149502754211426
243626,1610.975670753,0.04676232114434242,0.06129554286599159,0.9876323342323303,3.309738874435425,-1.3700529336929321,-1.8913638591766357
243636,1610.985888755,0.027898868545889854,0.0573500357568264,0.9824568629264832,2.3104705810546875,-0.22745148837566376,-4.708558082580566
243646,1610.995363377,0.031346000730991364,0.04790235683321953,0.9884063601493835,2.751340389251709,1.8047088384628296,-4.498809814453125
243656,1611.004925145,0.04486854374408722,0.037996336817741394,0.9996292591094971,2.17108416557312,2.3021156787872314,-1.2790511846542358
243666,1611.015662151,0.06554920971393585,0.03987133130431175,1.0056313276290894,1.3877217769622803,1.4206101894378662,0.7998708486557007
243676,1611.025463237,0.06962741166353226,0.03976476937532425,1.0077069997787476,1.5027401447296143,-0.402005136013031,0.4593099057674408
243686,1611.037047089,0.04960654675960541,0.033585093915462494,1.0051716566085815,0.8474760055541992,-2.0303285121917725,-0.4614112973213196
243696,1611.045170891,0.029203398153185844,0.04602016136050224,0.9972329139709473,-1.0495867729187012,-1.228503704071045,-1.5941848754882812
243706,1611.055459706,0.022257113829255104,0.06377378851175308,0.9867329001426697,0.04309777542948723,1.564953327178955,-0.6003708839416504
243716,1611.065665585,0.02140594832599163,0.06494247168302536,0.9824469089508057,0.35545814037323,2.842705011367798,2.0936100482940674
243726,1611.074926105,0.026389675214886665,0.06381590664386749,0.9881707429885864,-0.3178407549858093,3.035418748855591,2.965162754058838
243736,1611.085609589,0.054131731390953064,0.06518669426441193,0.9976189136505127,0.937724232673645,4.190395832061768,1.746038794517517
243746,1611.095448968,0.06441740691661835,0.059019431471824646,1.0066651105880737,2.1513991355895996,2.626495122909546,-0.36247214674949646
243756,1611.104831211,0.06204017624258995,0.04422912746667862,1.0137417316436768,0.8805829882621765,-0.2028099000453949,-2.176193952560425
243766,1611.11474952,0.05995790287852287,0.0351843424141407,1.0143555402755737,0.17744727432727814,-0.9208492636680603,-3.809727668762207
243776,1611.125251692,0.03155241906642914,0.02780756913125515,1.0044456720352173,0.2249053567647934,-0.9924813508987427,-3.49910306930542
243786,1611.135064177,0.018277553841471672,0.03421514481306076,0.9967148303985596,-0.7250311970710754,-0.8889012336730957,-1.899585485458374
243796,1611.145799279,0.036461833864450455,0.0469617061316967,0.9907189011573792,-1.3137450218200684,1.821905493736267,1.9479858875274658
243806,1611.155765584,0.06629586219787598,0.053858522325754166,0.9884750247001648,-0.37303459644317627,2.321613073348999,4.3749566078186035
243816,1611.166041569,0.06783811748027802,0.06596609950065613,0.9881097078323364,1.0406240224838257,-0.9113432168960571,3.3753981590270996
243826,1611.174446722,0.04616561532020569,0.058742716908454895,0.9852055311203003,1.0956547260284424,-3.10225772857666,-1.0464186668395996
243836,1611.185479139,0.014736204408109188,0.05185525864362717,0.978140652179718,0.7987806797027588,-1.746140956878662,-4.458071708679199
243846,1611.195349845,0.01651659421622753,0.056471142917871475,0.9806351065635681,-0.23439384996891022,1.6209522485733032,-3.384294271469116
243856,1611.205772992,0.04485765099525452,0.046633124351501465,0.9970734119415283,-0.7029182314872742,3.3968582153320312,0.7176321744918823
243866,1611.215779687,0.06074323132634163,0.042932264506816864,1.0002094507217407,-1.4917553663253784,1.654412865638733,4.188936233520508
243876,1611.225258022,0.045303359627723694,0.059999190270900726,0.9980250000953674,-1.1372053623199463,-0.7996025085449219,6.184738636016846
243886,1611.235126797,0.024022825062274933,0.057382065802812576,0.9997701644897461,-0.16698695719242096,-0.610407292842865,4.705707550048828
243896,1611.24590138,0.015980610623955727,0.04872113838791847,1.0053889751434326,-1.244303584098816,2.4560556411743164,1.1525928974151611
243906,1611.255035811,0.03480144590139389,0.049234725534915924,1.0066423416137695,-0.3096188008785248,3.8006670475006104,-0.8818762898445129
243916,1611.265098236,0.06344613432884216,0.0629798173904419,1.0033150911331177,0.04908324033021927,2.252581834793091,-1.272776484489441
243926,1611.274907019,0.07842715829610825,0.06342863291501999,1.000991702079773,0.355037659406662,-0.053924087435007095,-1.324621558189392
243936,1611.285963902,0.04252075031399727,0.047471124678850174,0.9875325560569763,0.512855589389801,-2.098676919937134,-0.449963241815567
243946,1611.294432443,0.01452681515365839,0.05344115570187569,0.9807400703430176,0.0916101485490799,-1.3413931131362915,-0.5982480645179749
243956,1611.305385687,0.02973768301308155,0.060599036514759064,0.9847381114959717,0.09206195920705795,2.7190206050872803,-2.1719000339508057
243966,1611.315361165,0.048331476747989655,0.05542027950286865,0.9876353144645691,0.3781833052635193,3.4810333251953125,-3.153675079345703
243976,1611.325294685,0.04654994606971741,0.04418180510401726,0.9916750192642212,1.0745997428894043,0.9314765930175781,-2.2254719734191895
243986,1611.335124212,0.04202758148312569,0.04085162281990051,0.9956261515617371,0.7464187741279602,0.4794695973396301,0.19025973975658417
243996,1611.345797429,0.050906602293252945,0.04110850766301155,1.0049502849578857,0.5341593623161316,1.3726812601089478,2.2345733642578125
244006,1611.354117716,0.06072506681084633,0.052175216376781464,1.011230230331421,-0.6136628985404968,0.9334980249404907,4.612238883972168
244016,1611.365514865,0.0423605777323246,0.049350421875715256,1.0019066333770752,0.33002352714538574,-0.3880422115325928,5.707947731018066
244026,1611.375829769,0.002842477522790432,0.044905293732881546,0.9941999316215515,-0.6437302231788635,-0.9824578166007996,5.617813587188721
244036,1611.385487109,0.001151061151176691,0.052247270941734314,0.9892913699150085,-1.5355541706085205,2.4746029376983643,3.568645477294922
244046,1611.39558078,0.03334929794073105,0.06574702262878418,0.9902297854423523,-0.22767576575279236,6.000549793243408,0.10957670211791992
244056,1611.405307999,0.06609262526035309,0.0690288245677948,0.9933594465255737,0.7354750037193298,4.312720775604248,-4.048385143280029
244066,1611.414813743,0.06770099699497223,0.05939960479736328,0.9926333427429199,2.3352997303009033,0.16315136849880219,-6.619765758514404
244076,1611.424987642,0.04194289445877075,0.054669640958309174,0.9958057999610901,1.9370561838150024,-1.2569589614868164,-5.970820426940918
244086,1611.43547367,0.019742470234632492,0.044203996658325195,0.997707188129425,1.1571482419967651,0.8723245859146118,-2.213524341583252
244096,1611.445053874,0.013133598491549492,0.039420463144779205,1.0021262168884277,0.18971535563468933,3.1440248489379883,3.481375217437744
244106,1611.45562288,0.024310508742928505,0.052958257496356964,1.0058388710021973,-0.16361519694328308,3.8058793544769287,6.128966331481934
244116,1611.465582973,0.05576349049806595,0.0558340959250927,1.0110548734664917,0.9580247402191162,3.476763963699341,3.813476800918579
244126,1611.474287283,0.06693563610315323,0.04744008928537369,1.0144922733306885,1.2302180528640747,1.5985007286071777,-1.2535006999969482
244136,1611.484771886,0.04958343133330345,0.0491892546415329,1.0086867809295654,0.8587679862976074,-1.7429550886154175,-5.1035027503967285
244146,1611.495513978,0.024597765877842903,0.06259148567914963,0.9937782883644104,1.0856493711471558,-1.6694780588150024,-4.8634467124938965
244156,1611.504504831,0.01657235436141491,0.0696779265999794,0.9881262183189392,2.4718286991119385,0.8944283723831177,-4.076099395751953
244166,1611.514437451,0.012423079460859299,0.057532522827386856,0.9874304533004761,0.09998466819524765,2.4561331272125244,-1.7930465936660767
244176,1611.52544912,0.021751878783106804,0.056616853922605515,0.9818761348724365,-0.7595012784004211,3.4146664142608643,2.1848394870758057
244186,1611.534805378,0.023223722353577614,0.06785286217927933,0.9707349538803101,-0.2977370321750641,3.923182249069214,5.750593185424805
244196,1611.545108228,0.015575245022773743,0.06220017373561859,0.9740268588066101,0.01621968485414982,4.205327033996582,6.148619651794434
244206,1611.554956598,0.022802721709012985,0.06222494691610336,0.9761782884597778,-0.03367837145924568,6.239014148712158,4.516143321990967
244216,1611.565472629,0.03170059993863106,0.06030721217393875,0.9841433167457581,0.5878964066505432,6.642635345458984,1.977216124534607
244226,1611.57413078,0.049969062209129333,0.05198938027024269,1.0016071796417236,0.16685613989830017,5.604049205780029,2.0342581272125244
244236,1611.584638987,0.05681624636054039,0.03746705874800682,1.0181783437728882,0.4206329882144928,3.5961849689483643,3.16859769821167
244246,1611.594429304,0.032143957912921906,0.04287271946668625,1.0212761163711548,-0.681047797203064,1.8446413278579712,5.9764885902404785
244256,1611.605427889,0.026295972988009453,0.04937358945608139,1.0179264545440674,0.04944257438182831,2.6961615085601807,6.09946346282959
244266,1611.615479804,0.03595805913209915,0.05250919610261917,1.0134849548339844,0.02788015827536583,3.993739604949951,3.1899869441986084
244276,1611.624109296,0.04892417788505554,0.06502345949411392,0.9976207613945007,0.3864884078502655,2.674856424331665,0.5250692367553711
244286,1611.635056519,0.037412162870168686,0.06435025483369827,0.9814338684082031,1.8021965026855469,0.9442310929298401,0.13687454164028168
244296,1611.644359171,0.0067512583918869495,0.03950762376189232,0.9805114269256592,0.36097270250320435,0.09771034121513367,1.980024814605713
244306,1611.655124741,-0.01464620791375637,0.03960954397916794,0.9791641235351562,-1.0011954307556152,3.448573112487793,4.364752292633057
244316,1611.664399958,-0.0036283577792346478,0.05487287417054176,0.9768815040588379,-0.5460427403450012,7.235705852508545,4.979887962341309
244326,1611.674259295,0.03198624774813652,0.06548570841550827,0.9859188795089722,-0.19031117856502533,7.915428161621094,3.75408935546875
244336,1611.685078392,0.05887990444898605,0.06481965631246567,0.9983670115470886,0.6439087390899658,5.959756374359131,1.8793898820877075
244346,1611.694992419,0.04790762439370155,0.050102170556783676,1.009397268295288,0.9956448078155518,2.998972177505493,1.4523206949234009
244356,1611.705075807,0.03024851158261299,0.03653306886553764,1.0126973390579224,0.7991183400154114,1.7372616529464722,0.622893214225769
244366,1611.714655786,0.012603197246789932,0.0407770574092865,1.0055160522460938,0.5901414155960083,3.0679931640625,-0.8365705013275146
244376,1611.724977882,0.00935883168131113,0.040683481842279434,1.0027873516082764,0.35338786244392395,3.906067132949829,-1.3732880353927612
244386,1611.734791722,0.024118922650814056,0.04516085609793663,1.007346510887146,-0.15994998812675476,3.454606056213379,-1.4735974073410034
244396,1611.745523915,0.03210621327161789,0.05806642770767212,1.0036591291427612,0.11804895102977753,2.2765464782714844,-0.6529313325881958
244406,1611.754586388,0.01441119983792305,0.05911749601364136,0.9974850416183472,-0.05244407057762146,1.474367618560791,1.2971711158752441
244416,1611.765578897,0.004985338542610407,0.04903420805931091,1.000388741493225,-1.239868402481079,2.488457441329956,1.9493753910064697
244426,1611.774988496,0.01642407663166523,0.049190036952495575,0.9989767074584961,-1.9762812852859497,5.0841450691223145,2.134737253189087
244436,1611.785417853,0.03043007291853428,0.06116340309381485,0.9935873746871948,-1.3690686225891113,4.4589009284973145,1.4455939531326294
244446,1611.794633755,0.03684895858168602,0.06938787549734116,0.9854429364204407,-0.30757564306259155,2.1009743213653564,0.3927001357078552
244456,1611.804717824,0.019659679383039474,0.05576125159859657,0.9856473207473755,0.3854817748069763,1.0298852920532227,0.7504811882972717
244466,1611.815085709,0.001967638498172164,0.035695433616638184,0.9908334612846375,0.03325730934739113,2.518167495727539,2.020681619644165
244476,1611.824052997,0.012003323994576931,0.03918464109301567,1.0027227401733398,-1.08585786819458,3.796361207962036,2.359184503555298
244486,1611.834517488,0.04353353753685951,0.04675222188234329,1.010763168334961,0.4230872690677643,3.322488784790039,0.9232531785964966
244496,1611.8450596,0.04636140912771225,0.0334562249481678,1.013274073600769,0.536967933177948,0.37930458784103394,-2.581442356109619
244506,1611.85497687,0.01881999708712101,0.030449746176600456,1.0061203241348267,-0.8226674795150757,-1.8305128812789917,-5.860054969787598
244516,1611.864608154,0.009062299504876137,0.04529707133769989,0.9949633479118347,-1.13124418258667,-0.532803475856781,-6.138075351715088
244526,1611.874429754,0.001151462784036994,0.051420096307992935,0.9926544427871704,-1.1069704294204712,1.1812855005264282,-3.3573126792907715
244536,1611.885446724,0.014197416603565216,0.0511799082159996,0.9913697242736816,-2.8847129344940186,1.2743849754333496,-0.00012714536569546908
244546,1611.895103797,0.03202829137444496,0.06851387023925781,0.9975019693374634,-2.957561492919922,0.7691196203231812,1.77908456325531
244556,1611.904714783,0.04972640797495842,0.07261969894170761,1.0041754245758057,-1.4012930393218994,-0.766380250453949,1.1048098802566528
244566,1611.914462833,0.033861834555864334,0.05283761024475098,1.0071372985839844,0.17448224127292633,-2.6039071083068848,-1.6749231815338135
244576,1611.925553066,0.0028422728646546602,0.03895074129104614,1.0048983097076416,-0.522530734539032,-3.7383880615234375,-4.3145599365234375
244586,1611.934507223,0.0002682338817976415,0.05152072012424469,0.9975383877754211,-0.8346278667449951,-1.6751110553741455,-4.292108535766602
244596,1611.944871724,0.014205245301127434,0.0502454936504364,0.9975610375404358,-1.150159478187561,0.34457927942276,-4.009485244750977
244606,1611.95493745,0.025790994986891747,0.056750811636447906,0.9933778643608093,-1.1339435577392578,-0.013684993609786034,-4.902835845947266
244616,1611.964043052,0.018580546602606773,0.05419391021132469,0.990934431552887,-0.3696783483028412,-2.0010879039764404,-5.813686847686768
244626,1611.974520774,0.008365901187062263,0.036915600299835205,1.0062388181686401,-2.0163581371307373,-2.2720296382904053,-7.3960137367248535
244636,1611.985103135,0.023971574380993843,0.05037808418273926,1.0150119066238403,-2.130767583847046,-1.0989583730697632,-8.755754470825195
244646,1611.994618414,0.04634547606110573,0.07242783159017563,1.0140570402145386,-1.2973392009735107,-1.554976463317871,-9.039414405822754
244656,1612.005084194,0.04622369632124901,0.06288278102874756,1.0098516941070557,0.01751086674630642,-4.466794013977051,-7.903777599334717
244666,1612.014075467,0.020406585186719894,0.04418910667300224,0.9954190254211426,-0.3148564398288727,-6.595806121826172,-7.0996503829956055
244676,1612.024511119,-0.021917948499321938,0.03351401165127754,0.9819775819778442,-1.983020544052124,-5.211791515350342,-5.088303565979004
244686,1612.035134871,-0.019681578502058983,0.038368452340364456,0.9900815486907959,-2.547739267349243,-0.9623091816902161,-3.1749768257141113
244696,1612.044607182,0.025036238133907318,0.049467697739601135,1.000022053718567,-3.5713319778442383,2.1300017833709717,-3.0086355209350586
244706,1612.054521087,0.051818352192640305,0.053760673850774765,1.0018643140792847,-1.2189966440200806,-0.6303497552871704,-3.6145732402801514
244716,1612.066439618,0.039731886237859726,0.05176476016640663,1.0018677711486816,-1.1843997240066528,-5.0311408042907715,-4.33200216293335
244726,1612.073884143,0.015765070915222168,0.061471614986658096,0.9961116313934326,-1.4249184131622314,-4.930734634399414,-2.590195417404175
244736,1612.08437084,0.014579602517187595,0.06069339066743851,0.9907616376876831,-1.7681629657745361,-1.5497567653656006,-0.26358118653297424
244746,1612.094497594,0.0306235458701849,0.055016323924064636,0.9975146055221558,-1.3044886589050293,-1.3455206155776978,1.0023188591003418
244756,1612.104633996,0.04305994510650635,0.058007724583148956,0.99359530210495,-0.6704638600349426,-3.2795629501342773,0.47442111372947693
244766,1612.114447336,0.019282646477222443,0.055297624319791794,0.9959989190101624,0.3455158472061157,-5.462597370147705,-1.023992896080017
244776,1612.123871189,0.0061857616528868675,0.047686707228422165,0.9989579916000366,-0.0051304553635418415,-4.111828804016113,-4.7990803718566895
244786,1612.134724152,-0.003786449320614338,0.033690813928842545,1.0103604793548584,-0.740160346031189,-1.3299778699874878,-5.595767498016357
244796,1612.145447682,0.0002325970126548782,0.031094830483198166,1.0088664293289185,-2.1268937587738037,-0.3026414215564728,-3.308441638946533
244806,1612.155060345,0.022651690989732742,0.04946589842438698,1.0022834539413452,-3.6211133003234863,-0.13179177045822144,-0.8602251410484314
244816,1612.165325171,0.04387752711772919,0.06470295786857605,0.9935539960861206,-2.430896520614624,-0.08480240404605865,2.1990060806274414
244826,1612.17507815,0.05110648274421692,0.06834203004837036,0.986200213432312,-1.0062569379806519,-0.8580265641212463,2.792362928390503
244836,1612.184760782,0.03302561119198799,0.05681823566555977,0.9809430241584778,0.04254436865448952,-2.8227622509002686,0.472195565700531
244846,1612.194388751,0.00450970558449626,0.03647477924823761,0.9917941689491272,-0.22964274883270264,-3.356076240539551,-2.642298698425293
244856,1612.204310284,0.01671692542731762,0.028577569872140884,1.0128819942474365,-0.39906877279281616,-1.0899085998535156,-6.358799457550049
244866,1612.214083787,0.04746810346841812,0.022974984720349312,1.0227028131484985,-1.2134392261505127,-0.6173581480979919,-8.421700477600098
244876,1612.225052071,0.03928373008966446,0.02353966049849987,1.0137041807174683,-2.1893372535705566,-4.097588539123535,-6.405960559844971
244886,1612.234109924,0.014122668653726578,0.04303933307528496,0.9944598078727722,-2.724984884262085,-5.440532684326172,-1.5725411176681519
244896,1612.244397218,0.006104316562414169,0.06245170533657074,0.9835777282714844,-2.0383143424987793,-2.159168243408203,1.7294400930404663
244906,1612.253824497,0.0306205153465271,0.06986382603645325,0.9754624962806702,-0.8361571431159973,0.8843269348144531,0.2592659592628479
244916,1612.266087727,0.040428996086120605,0.05894014611840248,0.9828864932060242,-0.22405311465263367,-0.9095602631568909,-4.886382579803467
244926,1612.274445138,0.026061976328492165,0.0511438250541687,0.9934561252593994,-0.7106021046638489,-3.9008374214172363,-6.8513407707214355
244936,1612.284848354,0.018574880436062813,0.05536122992634773,0.9990270733833313,-0.9585731029510498,-2.9168431758880615,-3.795206308364868
244946,1612.294483622,0.02864609658718109,0.04182170331478119,1.005767822265625,-1.0172536373138428,0.12200121581554413,0.43968504667282104
244956,1612.304915187,0.035169780254364014,0.03228231519460678,1.0096375942230225,-1.032220721244812,-1.0448074340820312,2.259431838989258
244966,1612.31476161,0.030223572626709938,0.029150405898690224,1.0069886445999146,-2.039250612258911,-2.3335955142974854,1.1252120733261108
244976,1612.324257891,0.01934107393026352,0.04365892708301544,1.0042352676391602,-1.6887953281402588,-2.8418128490448,-1.974973201751709
244986,1612.334183754,0.02019963227212429,0.05479597672820091,0.9935624599456787,-0.5160868167877197,-1.2603763341903687,-5.017067909240723
244996,1612.345128486,0.029887676239013672,0.04569082334637642,0.9916373491287231,-0.28483840823173523,0.4106892943382263,-7.426939964294434
245006,1612.355034641,0.04099758714437485,0.04449575021862984,0.9960583448410034,0.8617878556251526,-0.700076699256897,-7.33833122253418
245016,1612.366589201,0.04936245456337929,0.04353535175323486,0.9995324611663818,0.3716542422771454,-2.6720731258392334,-4.688004016876221
245026,1612.374559892,0.048800159245729446,0.03709498792886734,1.0005707740783691,-0.18895085155963898,-3.0113775730133057,-3.010529041290283
245036,1612.383887249,0.02959306538105011,0.0413258895277977,0.9949921369552612,-0.20061692595481873,-3.946789264678955,-3.4564452171325684
245046,1612.39355641,0.010046561248600483,0.044455427676439285,0.9840450286865234,-0.316219300031662,-2.3283443450927734,-3.5835978984832764
245056,1612.404419973,0.007039686199277639,0.031673088669776917,0.988766074180603,-0.9640902876853943,-0.547288179397583,-3.096592426300049
245066,1612.414234341,0.02526654489338398,0.04728108271956444,0.986115574836731,-1.5395582914352417,0.4645025134086609,-2.7500805854797363
245076,1612.42379222,0.035203609615564346,0.054933492094278336,0.9821256995201111,-1.1238187551498413,0.9481943845748901,-1.1100380420684814
245086,1612.433611852,0.022194785997271538,0.041978899389505386,0.988136887550354,-1.0345213413238525,-0.13718271255493164,2.713258743286133
245096,1612.444420138,0.030303772538900375,0.038353025913238525,0.995067834854126,-2.092513084411621,0.5414946675300598,6.314493179321289
245106,1612.454319574,0.05247101932764053,0.03918379917740822,1.0063092708587646,-2.520761251449585,1.1115247011184692,5.25215482711792
245116,1612.465022686,0.06109246611595154,0.047306958585977554,1.0142920017242432,-1.0124223232269287,-1.1228755712509155,-1.7608246803283691
245126,1612.474932036,0.05667450278997421,0.05062573030591011,1.007590651512146,0.662392258644104,-3.663891077041626,-9.766083717346191
245136,1612.483986739,0.02022790163755417,0.04945262521505356,0.9974654912948608,1.1843565702438354,-5.087447643280029,-12.405607223510742
245146,1612.494800761,-0.004340442828834057,0.044338811188936234,0.9811810255050659,0.6862448453903198,-2.5697925090789795,-6.998211860656738
245156,1612.504341369,-0.006160767748951912,0.028210945427417755,0.9837875962257385,-1.6982845067977905,1.5573813915252686,1.4749313592910767
245166,1612.51409985,0.0060408166609704494,0.02688184194266796,0.9831917881965637,-3.260518789291382,4.037496566772461,7.054399013519287
245176,1612.524588841,0.03208133578300476,0.04240173473954201,0.9890456795692444,-2.861609935760498,4.3347487449646,5.5155110359191895
245186,1612.534096682,0.07303708791732788,0.053518153727054596,1.0028530359268188,-1.351691484451294,2.85186767578125,-1.7829755544662476
245196,1612.544893053,0.0843089371919632,0.04844414442777634,1.0102182626724243,0.07842329889535904,-0.8431020379066467,-8.242036819458008
245206,1612.553827743,0.05091162025928497,0.041322093456983566,1.0113731622695923,2.263014793395996,-4.743795871734619,-9.308545112609863
245216,1612.566049547,0.02627912349998951,0.034248508512973785,1.0086761713027954,0.7889750003814697,-4.298343658447266,-6.116611003875732
245226,1612.57390824,0.02249223180115223,0.026504691690206528,1.0102131366729736,-0.05406507849693298,-1.1095952987670898,-1.0821855068206787
245236,1612.584960188,0.025373835116624832,0.021403569728136063,0.999687910079956,-1.082480788230896,-0.02463408373296261,1.9095568656921387
245246,1612.59478521,0.01020082738250494,0.029907718300819397,0.9958060383796692,-1.7574580907821655,-1.8296533823013306,0.48492732644081116
245256,1612.60424453,0.03308803588151932,0.045042604207992554,0.9966119527816772,-2.37980318069458,-1.4727866649627686,-4.788589000701904
245266,1612.614079522,0.057922374457120895,0.05152318626642227,0.9977278709411621,-0.7632428407669067,-0.696866512298584,-6.800187587738037
245276,1612.624785403,0.041944559663534164,0.04084340110421181,0.9911081790924072,-0.2312048226594925,-2.7820351123809814,-3.9307148456573486
245286,1612.634680082,0.01871642656624317,0.04673100635409355,0.9855639934539795,-1.0167701244354248,-3.5795602798461914,-1.0205912590026855
245296,1612.644105093,0.025490202009677887,0.05844632908701897,0.9863584637641907,-0.8363668918609619,-0.024806704372167587,-0.23696835339069366
245306,1612.654061514,0.037394508719444275,0.049951475113630295,0.990653932094574,-0.4529571831226349,1.588638186454773,-1.2620102167129517
245316,1612.664993928,0.04331471398472786,0.04691716656088829,0.9942847490310669,-0.27462008595466614,0.017926618456840515,-2.6825644969940186
245326,1612.674549535,0.04197787493467331,0.04215027764439583,1.0043611526489258,0.5554821491241455,-1.87232506275177,-5.060584545135498
245336,1612.683949268,0.03454289957880974,0.023885313421487808,1.0070867538452148,0.289340615272522,-1.625400424003601,-6.938499450683594
245346,1612.693640405,0.0227571502327919,0.01706570014357567,1.0071302652359009,-1.5449467897415161,-0.9448031783103943,-6.24506139755249
245356,1612.704748345,0.028416603803634644,0.02479642629623413,1.0016155242919922,-1.7627367973327637,-0.310545951128006,-4.233942985534668
245366,1612.71461844,0.031099511310458183,0.030855800956487656,0.9999979734420776,-1.7803665399551392,-0.06783229857683182,-3.044788122177124
245376,1612.724173797,0.030022162944078445,0.042569275945425034,0.9903654456138611,-1.7858233451843262,0.03060324862599373,-2.129398822784424
245386,1612.734024272,0.03580204397439957,0.043283067643642426,0.9944002032279968,0.4498852789402008,0.1481713503599167,-4.169999599456787
245396,1612.744712701,0.06334710866212845,0.03673936426639557,1.0055348873138428,-1.1373801231384277,-0.9903783202171326,-8.768331527709961
245406,1612.754096024,0.055023469030857086,0.039925865828990936,1.00959312915802,-0.9935073256492615,-2.923738956451416,-10.540953636169434
245416,1612.766370046,0.03630559891462326,0.05612786114215851,0.9912171959877014,0.29455140233039856,-3.935171365737915,-8.350764274597168
245426,1612.773601473,0.02079472690820694,0.052880167961120605,0.9921628832817078,0.28624361753463745,-3.125124216079712,-6.2624287605285645
245436,1612.784105721,0.026778437197208405,0.03958465903997421,0.9928587675094604,-1.0552371740341187,-1.2494102716445923,-4.5503668785095215
245446,1612.793569692,0.019528593868017197,0.04515785351395607,0.9889817833900452,-1.1088471412658691,-0.2717380225658417,-2.877948045730591
245456,1612.804083706,0.025855926796793938,0.050651755183935165,0.9862640500068665,-0.6252613663673401,0.12077859789133072,-1.962281346321106
245466,1612.813307268,0.0418509803712368,0.0452730655670166,0.9965987205505371,-0.4134189486503601,0.45367440581321716,-1.9193499088287354
245476,1612.823131969,0.04428250715136528,0.036363061517477036,1.0035511255264282,-1.487750768661499,0.271024227142334,0.5460875034332275
245486,1612.834470214,0.03192947059869766,0.0338592529296875,0.9980219602584839,-0.7450705766677856,-0.44231081008911133,2.204028367996216
245496,1612.844684067,0.03995075821876526,0.037498507648706436,1.004324197769165,-0.49314096570014954,0.18382950127124786,0.10017377883195877
245506,1612.854390185,0.0559239499270916,0.037819959223270416,1.0053917169570923,-0.12310238927602768,-0.005343847908079624,-3.063070058822632
245516,1612.866053419,0.04891868308186531,0.038853004574775696,1.0031929016113281,1.140993356704712,-2.0910534858703613,-3.3428120613098145
245526,1612.874558706,0.03114365227520466,0.03077944740653038,0.9996882081031799,0.7023193836212158,-3.042940139770508,-2.848862648010254
245536,1612.884177125,0.017886465415358543,0.018765561282634735,1.0040910243988037,-0.3988635241985321,-1.844466209411621,-2.879610538482666
245546,1612.893795344,0.03446505591273308,0.02712314948439598,1.0089607238769531,-1.160225749015808,0.2291164994239807,-3.5496373176574707
245556,1612.904425588,0.053175535053014755,0.0385449156165123,1.0069535970687866,-0.6866836547851562,-0.39749202132225037,-4.1879048347473145
245566,1612.914180839,0.04734072834253311,0.0418241061270237,0.9954379796981812,0.0113943200558424,-2.7373712062835693,-5.1063151359558105
245576,1612.923499959,0.04680508375167847,0.050405409187078476,0.9944472908973694,-0.6442959904670715,-3.2080087661743164,-6.077427864074707
245586,1612.933935264,0.05104294791817665,0.0532868392765522,0.9921079277992249,0.06065162271261215,-1.8629975318908691,-5.5705647468566895
245596,1612.944087901,0.02698037028312683,0.04129363223910332,0.9812946915626526,0.05953885242342949,-2.228532314300537,-3.0846519470214844
245606,1612.954085794,0.007611788809299469,0.030556056648492813,0.9862478375434875,-1.6753277778625488,-1.943050503730774,-0.865668535232544
245616,1612.96383895,0.025933485478162766,0.031154479831457138,0.9892592430114746,-2.6986377239227295,1.141391396522522,0.1876320242881775
245626,1612.974131115,0.042833518236875534,0.048269111663103104,0.9907625317573547,-1.1133067607879639,2.0459659099578857,1.6559576988220215
245636,1612.983629792,0.05102688446640968,0.04593653604388237,0.9945944547653198,-0.1638440489768982,0.013235669583082199,0.9461525082588196
245646,1612.993953137,0.05091794952750206,0.023774871602654457,1.002202033996582,-0.6359615921974182,-1.6080011129379272,-0.6977140307426453
245656,1613.004509026,0.04828764125704765,0.03529423847794533,1.0073511600494385,-1.2705285549163818,-1.7328959703445435,-1.6979018449783325
245666,1613.013085133,0.05000816285610199,0.03712328150868416,1.0063819885253906,-1.0994082689285278,-1.1590361595153809,-3.297452926635742
245676,1613.023638576,0.04224969074130058,0.03769337013363838,1.0070339441299438,-0.19939523935317993,-1.9807336330413818,-4.486451625823975
245686,1613.034506042,0.034365493804216385,0.04296313598752022,0.9970880150794983,-0.22809597849845886,-1.8671473264694214,-4.936432838439941
245696,1613.043676421,0.014151097275316715,0.053266990929841995,0.9962259531021118,-0.2669532001018524,-1.6938183307647705,-3.4147660732269287
245706,1613.053380942,0.03967764601111412,0.06199923902750015,0.9926418662071228,-1.3922970294952393,1.3749420642852783,-0.2832036018371582
245716,1613.063911295,0.04140733927488327,0.058976877480745316,0.9830586314201355,-0.6138308048248291,1.799372911453247,3.618412971496582
245726,1613.074479661,0.019464652985334396,0.04202462360262871,0.9757509827613831,-0.777172327041626,0.8159556984901428,5.903193950653076
245736,1613.083305063,0.026493504643440247,0.03270365670323372,0.9844775199890137,-0.8311922550201416,2.2935729026794434,4.38876485824585
245746,1613.093247537,0.04503084719181061,0.030040714889764786,0.9917047619819641,-0.5645551681518555,3.691835641860962,2.3783020973205566
245756,1613.104177093,0.036224693059921265,0.020717961713671684,0.997011661529541,0.64255291223526,3.038944721221924,2.1095757484436035
245766,1613.114159138,0.048516009002923965,0.01576012372970581,1.0130622386932373,-0.2388921082019806,2.084566116333008,1.1759458780288696
245776,1613.123792405,0.06277890503406525,0.01546128373593092,1.0277811288833618,0.1749061793088913,1.1927883625030518,-0.7015524506568909
245786,1613.133758181,0.07645994424819946,0.02334243804216385,1.034476637840271,-0.34258246421813965,-1.0465295314788818,-2.4182112216949463
245796,1613.143299611,0.08249542117118835,0.03201201185584068,1.0310832262039185,-0.2983419597148895,-3.4923903942108154,-3.160435438156128
245806,1613.153172391,0.06162228435277939,0.035670097917318344,1.0140407085418701,0.3064557611942291,-5.756163120269775,-3.5429677963256836
245816,1613.16414681,0.023008162155747414,0.0417032465338707,0.9950829744338989,0.10419397801160812,-7.358703136444092,-5.7309980392456055
245826,1613.17338545,0.0018736268393695354,0.0528266504406929,0.9806057214736938,-0.4441458284854889,-4.326021671295166,-7.799854278564453
245836,1613.183492313,0.0088850362226367,0.06252730637788773,0.9726130366325378,0.34936368465423584,-0.8647580742835999,-5.958832740783691
245846,1613.193687447,0.01393971312791109,0.061795737594366074,0.9716165661811829,-0.013310667127370834,1.0972375869750977,0.24641549587249756
245856,1613.204102929,0.018002299591898918,0.04892546311020851,0.9731007218360901,-0.0427677296102047,1.7543649673461914,4.3421311378479
245866,1613.213052666,0.02259858138859272,0.03463781625032425,0.9830585718154907,0.2562268376350403,3.1845219135284424,3.150527000427246
245876,1613.223050253,0.04599863290786743,0.013341468758881092,0.998641848564148,-1.8028273582458496,4.22706413269043,-1.5162678956985474
245886,1613.233413955,0.07693033665418625,0.013280919753015041,1.0043549537658691,-2.976940155029297,2.941303253173828,-2.6620800495147705
245896,1613.24421604,0.07325064390897751,0.018424002453684807,1.0015016794204712,-2.7072317600250244,-0.422489732503891,0.46554842591285706
245906,1613.253289642,0.059194616973400116,0.023923048749566078,1.00355863571167,-1.3433440923690796,-2.414975166320801,2.205911874771118
245916,1613.263578325,0.0506732277572155,0.02319345995783806,1.005107045173645,-1.5775370597839355,-1.9275332689285278,0.39144840836524963
245926,1613.273429073,0.029483327642083168,0.030615199357271194,0.9991068840026855,-0.9529851675033569,-2.220158338546753,-1.2283426523208618
245936,1613.283363674,0.02183705009520054,0.04250835254788399,0.9968453645706177,-1.3647698163986206,-1.5357885360717773,-1.714370846748352
245946,1613.293529788,0.029258092865347862,0.04514039307832718,1.002203106880188,-1.0924040079116821,-0.17322669923305511,-2.3461170196533203
245956,1613.303694925,0.03995630517601967,0.05430272966623306,0.9973148107528687,-0.7575125098228455,0.5652406811714172,-3.313868761062622
245966,1613.313346091,0.0420244000852108,0.053614094853401184,0.9876164197921753,-0.8274387717247009,0.3168538510799408,-3.5747087001800537
245976,1613.323342958,0.03669555485248566,0.04467526450753212,0.9903776049613953,-0.14036314189434052,-0.4518120586872101,-1.8023020029067993
245986,1613.333572818,0.02546176128089428,0.033997662365436554,0.9893790483474731,-0.5722975730895996,0.1018100306391716,1.4641472101211548
245996,1613.343470317,0.027927182614803314,0.03880321606993675,1.0029244422912598,-1.5287717580795288,1.602701187133789,6.0942816734313965
246006,1613.353557771,0.04294932633638382,0.03550649434328079,1.0071479082107544,-1.471079707145691,3.033412218093872,7.996330261230469
246016,1613.363588155,0.041011810302734375,0.031273480504751205,1.0083733797073364,-0.8740447759628296,2.286837100982666,5.191969871520996
246026,1613.373234,0.040475234389305115,0.02483329176902771,1.0024014711380005,-2.0807127952575684,1.5522253513336182,0.6899405121803284
246036,1613.384280945,0.04519321396946907,0.029494429007172585,0.9961434006690979,-1.755947470664978,1.222205400466919,-0.14064158499240875
246046,1613.392932708,0.049335870891809464,0.03583437576889992,0.987788200378418,-0.26095324754714966,0.9538127183914185,1.479712963104248
246056,1613.40384687,0.05133086442947388,0.04261285066604614,0.9926121234893799,0.8283044099807739,0.328874796628952,1.3549878597259521
246066,1613.413981298,0.060014594346284866,0.037962060421705246,0.9990721940994263,0.6249048709869385,-0.22555886209011078,0.232015922665596
246076,1613.424077932,0.036519214510917664,0.023529812693595886,1.0020253658294678,0.6307430267333984,-1.2583764791488647,-1.2879265546798706
246086,1613.433063716,0.011982510797679424,0.022509869188070297,0.9992672801017761,-0.29138651490211487,-0.9298306107521057,-2.5650482177734375
246096,1613.44294837,0.02391660213470459,0.028482969850301743,1.0010912418365479,-0.7535390853881836,1.7562249898910522,-3.799201488494873
246106,1613.452979747,0.04234420508146286,0.029982591047883034,1.0025583505630493,-0.5434074401855469,2.631568431854248,-2.7333192825317383
246116,1613.462935524,0.03906528279185295,0.03499184176325798,0.9942954778671265,-0.1341778188943863,0.9886739253997803,0.4079221487045288
246126,1613.473031454,0.03186936303973198,0.0451594814658165,0.9868802428245544,-0.2697347104549408,-0.09349243342876434,2.7754318714141846
